Word,trials.thisRepN,trials.thisTrialN,trials.thisN,trials.thisIndex,text.started,text.stopped,key_resp.keys,key_resp.rt,key_resp.started,key_resp.stopped,text_2.started,text_2.stopped,key_resp_2.keys,key_resp_2.rt,key_resp_2.started,key_resp_2.stopped,text_3.started,text_3.stopped,text_4.started,text_4.stopped,text_5.started,text_5.stopped,key_resp_3.keys,key_resp_3.rt,key_resp_3.started,key_resp_3.stopped,text_6.started,text_6.stopped,participant,session,date,expName,psychopyVersion,frameRate,
,,,,,8.301815259997966,None,1,0.9508061689848546,8.301815259997966,None,,,,,,,,,,,,,,,,,,,subj025,001,2023_Feb_20_0941,item_20(VR),3.2.3,59.902102353982485,
,,,,,,,,,,,9.285637149005197,None,5,18.23818855799618,9.285637149005197,None,,,,,,,,,,,,,subj025,001,2023_Feb_20_0941,item_20(VR),3.2.3,59.902102353982485,
hair,0,0,0,9,,,,,,,,,,,,,28.55276256299112,None,27.56994905200554,28.569532672001515,33.553144303994486,None,2,0.788579560990911,33.553144303994486,None,,,subj025,001,2023_Feb_20_0941,item_20(VR),3.2.3,59.902102353982485,
baby,0,1,1,14,,,,,,,,,,,,,39.53604020000785,38.552847437007586,38.552847437007586,39.5532680680044,44.53663759099436,38.552847437007586,1,0.8961569919774774,44.53663759099436,38.552847437007586,,,subj025,001,2023_Feb_20_0941,item_20(VR),3.2.3,59.902102353982485,
snowball,0,2,2,19,,,,,,,,,,,,,50.52041026297957,49.53731447199243,49.53731447199243,50.53739361598855,55.51959749098751,49.53731447199243,2,0.765090965986019,55.51959749098751,49.53731447199243,,,subj025,001,2023_Feb_20_0941,item_20(VR),3.2.3,59.902102353982485,
porcupine,0,3,3,13,,,,,,,,,,,,,61.51997182398918,60.51981772799627,60.51981772799627,61.51997182398918,66.50301467897953,71.50335211100173,1,1.1787777849822305,66.50301467897953,71.50335211100173,,,subj025,001,2023_Feb_20_0941,item_20(VR),3.2.3,59.902102353982485,
cheerleader,0,4,4,12,,,,,,,,,,,,,72.50340540599427,71.51999545900617,71.51999545900617,72.51935942898854,77.50268971399055,None,1,0.5760787100007292,77.50268971399055,None,,,subj025,001,2023_Feb_20_0941,item_20(VR),3.2.3,59.902102353982485,
passport,0,5,5,16,,,,,,,,,,,,,83.4863084119861,82.50357151200296,82.50357151200296,83.50265473398031,88.48708672300563,82.50357151200296,2,0.7766721220104955,88.48708672300563,82.50357151200296,,,subj025,001,2023_Feb_20_0941,item_20(VR),3.2.3,59.902102353982485,
leopard,0,6,6,0,,,,,,,,,,,,,94.47018377299537,93.48691964498721,93.48691964498721,94.48617063599522,99.46976130999974,93.48691964498721,1,0.7008880900102668,99.46976130999974,93.48691964498721,,,subj025,001,2023_Feb_20_0941,item_20(VR),3.2.3,59.902102353982485,
cabdriver,0,7,7,8,,,,,,,,,,,,,105.4695467959973,104.47009757600608,104.47009757600608,105.4695467959973,110.45355581899639,115.4535544590035,1,1.3190559540234972,110.45355581899639,115.4535544590035,,,subj025,001,2023_Feb_20_0941,item_20(VR),3.2.3,59.902102353982485,
mirror,0,8,8,11,,,,,,,,,,,,,116.45357077699737,115.46943076199386,115.46943076199386,116.46965657599503,121.45286444199155,None,2,1.18381740298355,121.45286444199155,None,,,subj025,001,2023_Feb_20_0941,item_20(VR),3.2.3,59.902102353982485,
waterfall,0,9,9,2,,,,,,,,,,,,,127.43682502600132,126.45323747699149,126.45323747699149,127.4530663919868,132.43627875499078,126.45323747699149,2,0.46449699698132463,132.43627875499078,126.45323747699149,,,subj025,001,2023_Feb_20_0941,item_20(VR),3.2.3,59.902102353982485,
necklace,0,10,10,3,,,,,,,,,,,,,138.41929730898119,148.41972109099152,137.43719675400644,138.45280957399518,143.42045393999433,137.43719675400644,2,0.7652360409847461,143.42045393999433,137.43719675400644,,,subj025,001,2023_Feb_20_0941,item_20(VR),3.2.3,59.902102353982485,
ketchup,0,11,11,15,,,,,,,,,,,,,149.42032063100487,None,148.4365521800064,149.43636014999356,154.41900506499223,159.41989530198043,2,0.944800088996999,154.41900506499223,159.41989530198043,,,subj025,001,2023_Feb_20_0941,item_20(VR),3.2.3,59.902102353982485,
chipmunk,0,12,12,18,,,,,,,,,,,,,160.41906131099677,159.4364355939906,159.4364355939906,160.4358708059881,165.41920024398132,None,1,0.6666032480134163,165.41920024398132,None,,,subj025,001,2023_Feb_20_0941,item_20(VR),3.2.3,59.902102353982485,
grandfather,0,13,13,7,,,,,,,,,,,,,171.40243859298062,170.4194211959839,170.4194211959839,171.41949487000238,176.40250411300804,170.4194211959839,1,0.6321667559968773,176.40250411300804,170.4194211959839,,,subj025,001,2023_Feb_20_0941,item_20(VR),3.2.3,59.902102353982485,
microscope,0,14,14,1,,,,,,,,,,,,,182.38582634998602,181.40249784500338,181.40249784500338,182.40260749700246,187.38588017999427,181.40249784500338,2,0.8347603120200802,187.38588017999427,181.40249784500338,,,subj025,001,2023_Feb_20_0941,item_20(VR),3.2.3,59.902102353982485,
axe,0,15,15,6,,,,,,,,,,,,,193.369767547003,192.38595661398722,192.38595661398722,193.38604605398723,198.36920386299607,192.38595661398722,2,0.8494135259825271,198.36920386299607,192.38595661398722,,,subj025,001,2023_Feb_20_0941,item_20(VR),3.2.3,59.902102353982485,
knight,0,16,16,4,,,,,,,,,,,,,204.35247776599135,203.37034247998963,203.37034247998963,204.3856074269861,209.3524724879826,203.37034247998963,1,0.709298027009936,209.3524724879826,203.37034247998963,,,subj025,001,2023_Feb_20_0941,item_20(VR),3.2.3,59.902102353982485,
hummingbird,0,17,17,5,,,,,,,,,,,,,215.3525499579846,214.35270821198355,214.35270821198355,215.3525499579846,220.35389031199156,214.35270821198355,1,0.6259004969906528,220.35389031199156,214.35270821198355,,,subj025,001,2023_Feb_20_0941,item_20(VR),3.2.3,59.902102353982485,
treadmill,0,18,18,17,,,,,,,,,,,,,226.33712192898383,225.35411278298125,225.35411278298125,226.3538263939845,231.3371419920004,225.35411278298125,2,0.9645003649930004,231.3371419920004,225.35411278298125,,,subj025,001,2023_Feb_20_0941,item_20(VR),3.2.3,59.902102353982485,
ladybug,0,19,19,10,,,,,,,,,,,,,237.32019013300305,236.33736303300248,236.33736303300248,237.3365736370033,242.32000193398562,236.33736303300248,1,1.070758254994871,242.32000193398562,236.33736303300248,,,subj025,001,2023_Feb_20_0941,item_20(VR),3.2.3,59.902102353982485,
,,,,,,,,,,,,,,,,,,,,,,,,,,,247.31995507498505,None,,,,,,,
