Word,trials.thisRepN,trials.thisTrialN,trials.thisN,trials.thisIndex,text.started,text.stopped,key_resp.keys,key_resp.rt,key_resp.started,key_resp.stopped,text_2.started,text_2.stopped,key_resp_2.keys,key_resp_2.rt,key_resp_2.started,key_resp_2.stopped,text_3.started,text_3.stopped,text_4.started,text_4.stopped,text_5.started,text_5.stopped,key_resp_3.keys,key_resp_3.rt,key_resp_3.started,key_resp_3.stopped,text_6.started,text_6.stopped,participant,session,date,expName,psychopyVersion,frameRate,
,,,,,5.677853256998787,None,1,0.5409195550018921,5.677853256998787,None,,,,,,,,,,,,,,,,,,,subj019,001,2022_Nov_08_1123,item_20(VR),3.2.3,60.11159176022801,
,,,,,,,,,,,6.239859097997396,None,5,18.01104845699956,6.239859097997396,None,,,,,,,,,,,,,subj019,001,2022_Nov_08_1123,item_20(VR),3.2.3,60.11159176022801,
hummingbird,0,0,0,5,,,,,,,,,,,,,25.27447266099989,None,24.272548031000042,25.27447266099989,30.257008243999735,35.25766566099992,1,1.304871598000318,30.257008243999735,35.25766566099992,,,subj019,001,2022_Nov_08_1123,item_20(VR),3.2.3,60.11159176022801,
porcupine,0,1,1,13,,,,,,,,,,,,,36.27301535299921,None,35.27399418499772,36.27301535299921,41.257503488999646,46.25765106499966,1,0.6013143819982361,41.257503488999646,46.25765106499966,,,subj019,001,2022_Nov_08_1123,item_20(VR),3.2.3,60.11159176022801,
cheerleader,0,2,2,12,,,,,,,,,,,,,47.26165250700069,None,46.27435062499717,47.27440074599872,52.26162030299747,57.2574604750007,1,0.7842877120019693,52.26162030299747,57.2574604750007,,,subj019,001,2022_Nov_08_1123,item_20(VR),3.2.3,60.11159176022801,
ketchup,0,3,3,15,,,,,,,,,,,,,58.257707730997936,None,57.27350482399925,58.27849456799959,63.25750578499719,None,2,0.49638005700035137,63.25750578499719,None,,,subj019,001,2022_Nov_08_1123,item_20(VR),3.2.3,60.11159176022801,
axe,0,4,4,6,,,,,,,,,,,,,69.2410625550001,68.26096046399834,68.26096046399834,69.27376236000055,74.24119728499863,68.26096046399834,2,0.6736811320006382,74.24119728499863,68.26096046399834,,,subj019,001,2022_Nov_08_1123,item_20(VR),3.2.3,60.11159176022801,
mirror,0,5,5,11,,,,,,,,,,,,,80.22439450499951,79.24413149099928,79.24413149099928,80.25759842600019,85.22455205900042,79.24413149099928,2,0.4223201960012375,85.22455205900042,79.24413149099928,,,subj019,001,2022_Nov_08_1123,item_20(VR),3.2.3,60.11159176022801,
treadmill,0,6,6,17,,,,,,,,,,,,,91.20774717899985,101.20712055499826,90.22458565899797,91.22456470699763,96.21106447800048,90.22458565899797,2,0.7208008449997578,96.21106447800048,90.22458565899797,,,subj019,001,2022_Nov_08_1123,item_20(VR),3.2.3,60.11159176022801,
microscope,0,7,7,1,,,,,,,,,,,,,102.20708096700037,None,101.22391391899873,102.22382068099978,107.20788463799909,101.22391391899873,2,4.389031990998774,107.20788463799909,101.22391391899873,,,subj019,001,2022_Nov_08_1123,item_20(VR),3.2.3,60.11159176022801,
passport,0,8,8,16,,,,,,,,,,,,,113.19131747799838,112.2074779229988,112.2074779229988,113.20767287799754,118.19124853299945,112.2074779229988,2,0.6145332109990704,118.19124853299945,112.2074779229988,,,subj019,001,2022_Nov_08_1123,item_20(VR),3.2.3,60.11159176022801,
hair,0,9,9,9,,,,,,,,,,,,,124.17387351899742,123.19053358299789,123.19053358299789,124.19099181899946,129.17387290999977,123.19053358299789,None,,129.17387290999977,123.19053358299789,,,subj019,001,2022_Nov_08_1123,item_20(VR),3.2.3,60.11159176022801,
ladybug,0,10,10,10,,,,,,,,,,,,,135.15721268999914,134.1736790169998,134.1736790169998,135.17425296799775,140.15723343100035,134.1736790169998,None,,140.15723343100035,134.1736790169998,,,subj019,001,2022_Nov_08_1123,item_20(VR),3.2.3,60.11159176022801,
necklace,0,11,11,3,,,,,,,,,,,,,146.1405217779975,145.1574289759992,145.1574289759992,146.15661523299786,151.14059241599898,145.1574289759992,2,0.6691526180002256,151.14059241599898,145.1574289759992,,,subj019,001,2022_Nov_08_1123,item_20(VR),3.2.3,60.11159176022801,
cabdriver,0,12,12,8,,,,,,,,,,,,,157.14081175499814,156.14072717899762,156.14072717899762,157.14081175499814,162.14069481099796,156.14072717899762,1,0.4670333699978073,162.14069481099796,156.14072717899762,,,subj019,001,2022_Nov_08_1123,item_20(VR),3.2.3,60.11159176022801,
snowball,0,13,13,19,,,,,,,,,,,,,168.12394306499846,167.14063036299922,167.14063036299922,168.14124317499954,173.12417236299734,167.14063036299922,2,0.962740307997592,173.12417236299734,167.14063036299922,,,subj019,001,2022_Nov_08_1123,item_20(VR),3.2.3,60.11159176022801,
leopard,0,14,14,0,,,,,,,,,,,,,179.10782261799977,178.12416365899844,178.12416365899844,179.12455987299836,184.10746654499962,178.12416365899844,1,1.0094553399976576,184.10746654499962,178.12416365899844,,,subj019,001,2022_Nov_08_1123,item_20(VR),3.2.3,60.11159176022801,
knight,0,15,15,4,,,,,,,,,,,,,190.09072332399955,189.1078670499992,189.1078670499992,190.10793555000055,195.09076446299878,189.1078670499992,1,0.46600545599721954,195.09076446299878,189.1078670499992,,,subj019,001,2022_Nov_08_1123,item_20(VR),3.2.3,60.11159176022801,
baby,0,16,16,14,,,,,,,,,,,,,201.07415719399796,200.12357987999712,200.12357987999712,201.12437772299745,206.07419281299735,200.12357987999712,1,0.6947223050010507,206.07419281299735,200.12357987999712,,,subj019,001,2022_Nov_08_1123,item_20(VR),3.2.3,60.11159176022801,
waterfall,0,17,17,2,,,,,,,,,,,,,212.05748398799915,211.0742887769993,211.0742887769993,212.07419973099968,217.05785653299972,211.0742887769993,2,0.4019438209979853,217.05785653299972,211.0742887769993,,,subj019,001,2022_Nov_08_1123,item_20(VR),3.2.3,60.11159176022801,
chipmunk,0,18,18,18,,,,,,,,,,,,,223.04073107099975,222.05781111099714,222.05781111099714,223.05780834599864,228.04091794099804,222.05781111099714,1,0.7358191969979089,228.04091794099804,222.05781111099714,,,subj019,001,2022_Nov_08_1123,item_20(VR),3.2.3,60.11159176022801,
grandfather,0,19,19,7,,,,,,,,,,,,,234.02448016299968,233.04101205799816,233.04101205799816,234.04136411799846,239.024295291998,233.04101205799816,1,0.7726114279976173,239.024295291998,233.04101205799816,,,subj019,001,2022_Nov_08_1123,item_20(VR),3.2.3,60.11159176022801,
,,,,,,,,,,,,,,,,,,,,,,,,,,,244.02427996999904,None,,,,,,,
