Word,trials.thisRepN,trials.thisTrialN,trials.thisN,trials.thisIndex,text.started,text.stopped,key_resp.keys,key_resp.rt,key_resp.started,key_resp.stopped,text_2.started,text_2.stopped,key_resp_2.keys,key_resp_2.rt,key_resp_2.started,key_resp_2.stopped,text_3.started,text_3.stopped,text_4.started,text_4.stopped,text_5.started,text_5.stopped,key_resp_3.keys,key_resp_3.rt,key_resp_3.started,key_resp_3.stopped,text_6.started,text_6.stopped,participant,session,date,expName,psychopyVersion,frameRate,
,,,,,8.385555535991443,None,1,7.645840790006332,8.385555535991443,None,,,,,,,,,,,,,,,,,,,subj029,001,2023_Apr_02_1619,item,3.2.3,60.00545472947088,
,,,,,,,,,,,16.05445996701019,None,5,18.74307917698752,16.05445996701019,None,,,,,,,,,,,,,subj029,001,2023_Apr_02_1619,item,3.2.3,60.00545472947088,
ladybug,0,0,0,30,,,,,,,,,,,,,35.8198962410097,None,34.81829340101103,35.8198962410097,40.81909606800764,None,1,1.168401853996329,40.81909606800764,None,,,subj029,001,2023_Apr_02_1619,item,3.2.3,60.00545472947088,
porcupine,0,1,1,22,,,,,,,,,,,,,46.819106267008465,None,45.81939794000937,46.819106267008465,51.819415584002854,None,1,0.6221292950212955,51.819415584002854,None,,,subj029,001,2023_Apr_02_1619,item,3.2.3,60.00545472947088,
grandfather,0,2,2,34,,,,,,,,,,,,,57.80272575499839,None,56.82054552799673,57.83585656998912,62.80317445201217,None,1,1.0084274599794298,62.80317445201217,None,,,subj029,001,2023_Apr_02_1619,item,3.2.3,60.00545472947088,
ketchup,0,3,3,2,,,,,,,,,,,,,68.78603116699378,67.80262723800843,67.80262723800843,68.80306931599625,73.78633403399726,67.80262723800843,2,0.8762813920038752,73.78633403399726,67.80262723800843,,,subj029,001,2023_Apr_02_1619,item,3.2.3,60.00545472947088,
coyote,0,4,4,27,,,,,,,,,,,,,79.76939071601373,78.78536868200172,78.78536868200172,79.7863765739894,84.76949702500133,78.78536868200172,1,1.044089825998526,84.76949702500133,78.78536868200172,,,subj029,001,2023_Apr_02_1619,item,3.2.3,60.00545472947088,
stove,0,5,5,13,,,,,,,,,,,,,90.75281354799517,89.76960681201308,89.76960681201308,90.76958884100895,95.75287312499131,89.76960681201308,2,1.3337221649999265,95.75287312499131,89.76960681201308,,,subj029,001,2023_Apr_02_1619,item,3.2.3,60.00545472947088,
cheesecake,0,6,6,7,,,,,,,,,,,,,101.73601959898951,100.75280819600448,100.75280819600448,101.75283209001645,106.73605902501731,100.75280819600448,2,0.9635272960003931,106.73605902501731,100.75280819600448,,,subj029,001,2023_Apr_02_1619,item,3.2.3,60.00545472947088,
keyboard,0,7,7,15,,,,,,,,,,,,,112.71925238100812,111.73615532301483,111.73615532301483,112.73661355499644,117.72032549299183,111.73615532301483,2,0.8412760249921121,117.72032549299183,111.73615532301483,,,subj029,001,2023_Apr_02_1619,item,3.2.3,60.00545472947088,
walrus,0,8,8,25,,,,,,,,,,,,,123.70281697099563,122.72050830701482,122.72050830701482,123.73584632400889,128.70358567501535,122.72050830701482,1,0.8060138130094856,128.70358567501535,122.72050830701482,,,subj029,001,2023_Apr_02_1619,item,3.2.3,60.00545472947088,
scalpel,0,9,9,19,,,,,,,,,,,,,134.6860693859926,133.7031986899965,133.7031986899965,134.70296182399034,139.68623373599257,133.7031986899965,2,0.8253630779800005,139.68623373599257,133.7031986899965,,,subj029,001,2023_Apr_02_1619,item,3.2.3,60.00545472947088,
hair,0,10,10,8,,,,,,,,,,,,,145.66942394999205,144.68655669799773,144.68655669799773,145.68630613700952,150.66943999798968,144.68655669799773,2,1.2781287730031181,150.66943999798968,144.68655669799773,,,subj029,001,2023_Apr_02_1619,item,3.2.3,60.00545472947088,
baby,0,11,11,20,,,,,,,,,,,,,156.65372215601383,155.66955299300025,155.66955299300025,156.66996961599216,161.65291382800206,155.66955299300025,1,0.8536300320120063,161.65291382800206,155.66955299300025,,,subj029,001,2023_Apr_02_1619,item,3.2.3,60.00545472947088,
snowball,0,12,12,14,,,,,,,,,,,,,167.63701676100027,166.65270849099034,166.65270849099034,167.653000160004,172.6371684159967,166.65270849099034,2,0.832313888007775,172.6371684159967,166.65270849099034,,,subj029,001,2023_Apr_02_1619,item,3.2.3,60.00545472947088,
cheerleader,0,13,13,32,,,,,,,,,,,,,178.6196016340109,177.63605342499795,177.63605342499795,178.6370933589933,183.62021579701104,177.63605342499795,1,1.544372361007845,183.62021579701104,177.63605342499795,,,subj029,001,2023_Apr_02_1619,item,3.2.3,60.00545472947088,
airplane,0,14,14,9,,,,,,,,,,,,,189.6034553339996,188.61973103601485,188.61973103601485,189.61996177901165,194.60352491299273,188.61973103601485,2,1.5120498269970994,194.60352491299273,188.61973103601485,,,subj029,001,2023_Apr_02_1619,item,3.2.3,60.00545472947088,
umbrella,0,15,15,5,,,,,,,,,,,,,200.58658574800938,199.60277520201635,199.60277520201635,200.60297428499325,205.58645023099962,199.60277520201635,2,1.7411387420143,205.58645023099962,199.60277520201635,,,subj029,001,2023_Apr_02_1619,item,3.2.3,60.00545472947088,
leopard,0,16,16,24,,,,,,,,,,,,,211.5696866470098,221.56972216101713,210.58614832599415,211.5867456549895,216.57053879500018,210.58614832599415,1,1.0090365890064277,216.57053879500018,210.58614832599415,,,subj029,001,2023_Apr_02_1619,item,3.2.3,60.00545472947088,
knight,0,17,17,38,,,,,,,,,,,,,222.56981039300445,None,221.5865588010056,222.5857730229909,227.56901904099504,221.5865588010056,1,0.8174033059913199,227.56901904099504,221.5865588010056,,,subj029,001,2023_Apr_02_1619,item,3.2.3,60.00545472947088,
axe,0,18,18,0,,,,,,,,,,,,,233.55224653799087,232.5698028629995,232.5698028629995,233.56909678000375,238.55240731700906,232.5698028629995,2,1.0500175520137418,238.55240731700906,232.5698028629995,,,subj029,001,2023_Apr_02_1619,item,3.2.3,60.00545472947088,
microscope,0,19,19,6,,,,,,,,,,,,,244.535673883016,243.55244661899633,243.55244661899633,244.55272822699044,249.53574694899726,243.55244661899633,2,0.6708002640225459,249.53574694899726,243.55244661899633,,,subj029,001,2023_Apr_02_1619,item,3.2.3,60.00545472947088,
swan,0,20,20,29,,,,,,,,,,,,,255.51901639299467,254.53582405199995,254.53582405199995,255.53576107200934,260.519079471007,254.53582405199995,1,1.2544757919968106,260.519079471007,254.53582405199995,,,subj029,001,2023_Apr_02_1619,item,3.2.3,60.00545472947088,
mirror,0,21,21,10,,,,,,,,,,,,,266.50230127800023,265.51912891099346,265.51912891099346,266.51918512998964,271.5024536710116,265.51912891099346,2,1.078146193001885,271.5024536710116,265.51912891099346,,,subj029,001,2023_Apr_02_1619,item,3.2.3,60.00545472947088,
violinist,0,22,22,39,,,,,,,,,,,,,277.4855880920077,276.50365144899115,276.50365144899115,277.51880106600584,282.4856926740031,276.50365144899115,1,1.5728637870051898,282.4856926740031,276.50365144899115,,,subj029,001,2023_Apr_02_1619,item,3.2.3,60.00545472947088,
camera,0,23,23,3,,,,,,,,,,,,,288.4688547709957,287.4856130820117,287.4856130820117,288.48577945900615,293.47020893299486,287.4856130820117,2,1.2273578500025906,293.47020893299486,287.4856130820117,,,subj029,001,2023_Apr_02_1619,item,3.2.3,60.00545472947088,
seahorse,0,24,24,33,,,,,,,,,,,,,299.45340831798967,298.4700043560006,298.4700043560006,299.4702948949998,304.4533258390147,298.4700043560006,1,1.969119301007595,304.4533258390147,298.4700043560006,,,subj029,001,2023_Apr_02_1619,item,3.2.3,60.00545472947088,
bulldozer,0,25,25,17,,,,,,,,,,,,,310.43652630300494,309.4534132470144,309.4534132470144,310.45338757600985,315.43666381799267,309.4534132470144,2,1.082792557979701,315.43666381799267,309.4534132470144,,,subj029,001,2023_Apr_02_1619,item,3.2.3,60.00545472947088,
platypus,0,26,26,35,,,,,,,,,,,,,321.41992543201195,320.4360672509938,320.4360672509938,321.4367512589961,326.42000167100923,320.4360672509938,1,0.896574698999757,326.42000167100923,320.4360672509938,,,subj029,001,2023_Apr_02_1619,item,3.2.3,60.00545472947088,
crab,0,27,27,31,,,,,,,,,,,,,332.4032416449918,331.419357116014,331.419357116014,332.42005824501393,337.4033170620096,331.419357116014,1,1.4372371089993976,337.4033170620096,331.419357116014,,,subj029,001,2023_Apr_02_1619,item,3.2.3,60.00545472947088,
necklace,0,28,28,12,,,,,,,,,,,,,343.3875297399936,342.40422266800306,342.40422266800306,343.403258055012,348.3876890960091,342.40422266800306,2,1.1097527269739658,348.3876890960091,342.40422266800306,,,subj029,001,2023_Apr_02_1619,item,3.2.3,60.00545472947088,
hairstylist,0,29,29,37,,,,,,,,,,,,,354.3698279579985,353.38607989100274,353.38607989100274,354.3877709239896,359.3708303759922,353.38607989100274,1,1.2956306069972925,359.3708303759922,353.38607989100274,,,subj029,001,2023_Apr_02_1619,item,3.2.3,60.00545472947088,
passport,0,30,30,4,,,,,,,,,,,,,365.3541714049934,364.3694019000104,364.3694019000104,365.3705205320148,370.3541233910073,364.3694019000104,2,0.7493250769912265,370.3541233910073,364.3694019000104,,,subj029,001,2023_Apr_02_1619,item,3.2.3,60.00545472947088,
hummingbird,0,31,31,28,,,,,,,,,,,,,376.3539010590175,375.3527588309953,375.3527588309953,376.3539010590175,381.35386072899564,375.3527588309953,1,1.0275521959993057,381.35386072899564,375.3527588309953,,,subj029,001,2023_Apr_02_1619,item,3.2.3,60.00545472947088,
chipmunk,0,32,32,26,,,,,,,,,,,,,387.3369273309945,386.3535843770078,386.3535843770078,387.35374409501674,392.33702048199484,386.3535843770078,1,1.8916025920188986,392.33702048199484,386.3535843770078,,,subj029,001,2023_Apr_02_1619,item,3.2.3,60.00545472947088,
treadmill,0,33,33,16,,,,,,,,,,,,,398.3202404039912,397.3370097230072,397.3370097230072,398.3366388530121,403.32030131301144,397.3370097230072,2,0.9341774600034114,403.32030131301144,397.3370097230072,,,subj029,001,2023_Apr_02_1619,item,3.2.3,60.00545472947088,
binoculars,0,34,34,1,,,,,,,,,,,,,409.30355072999373,408.3198658929905,408.3198658929905,409.3199096840108,414.30434141799924,408.3198658929905,2,3.518116023973562,414.30434141799924,408.3198658929905,,,subj029,001,2023_Apr_02_1619,item,3.2.3,60.00545472947088,
donkey,0,35,35,23,,,,,,,,,,,,,420.28795183400507,419.30385459499666,419.30385459499666,420.3041047450097,425.28800617100205,419.30385459499666,1,0.9926089530054014,425.28800617100205,419.30385459499666,,,subj029,001,2023_Apr_02_1619,item,3.2.3,60.00545472947088,
waterfall,0,36,36,18,,,,,,,,,,,,,431.28739581399714,430.3042269530124,430.3042269530124,431.30422910599736,436.2875617840036,430.3042269530124,2,1.0509125939861406,436.2875617840036,430.3042269530124,,,subj029,001,2023_Apr_02_1619,item,3.2.3,60.00545472947088,
elephant,0,37,37,21,,,,,,,,,,,,,442.2703584539995,441.28648863901617,441.28648863901617,442.2875708170177,447.2700946140103,441.28648863901617,1,1.1283789449953474,447.2700946140103,441.28648863901617,,,subj029,001,2023_Apr_02_1619,item,3.2.3,60.00545472947088,
fingerprint,0,38,38,11,,,,,,,,,,,,,453.2539643810014,452.2706568360154,452.2706568360154,453.2709213499911,458.25411962601356,452.2706568360154,2,0.922428816993488,458.25411962601356,452.2706568360154,,,subj029,001,2023_Apr_02_1619,item,3.2.3,60.00545472947088,
cabdriver,0,39,39,36,,,,,,,,,,,,,464.2371409639891,463.25319753799704,463.25319753799704,464.2542348309944,469.236806203,463.25319753799704,1,0.9016395919898059,469.236806203,463.25319753799704,,,subj029,001,2023_Apr_02_1619,item,3.2.3,60.00545472947088,
,,,,,,,,,,,,,,,,,,,,,,,,,,,474.2368735130003,None,,,,,,,
