Word,trials.thisRepN,trials.thisTrialN,trials.thisN,trials.thisIndex,text.started,text.stopped,key_resp.keys,key_resp.rt,key_resp.started,key_resp.stopped,text_2.started,text_2.stopped,key_resp_2.keys,key_resp_2.rt,key_resp_2.started,key_resp_2.stopped,text_3.started,text_3.stopped,text_4.started,text_4.stopped,text_5.started,text_5.stopped,key_resp_3.keys,key_resp_3.rt,key_resp_3.started,key_resp_3.stopped,text_6.started,text_6.stopped,participant,session,date,expName,psychopyVersion,frameRate,
,,,,,7.593042841999704,None,1,6.3854722430005495,7.593042841999704,None,,,,,,,,,,,,,,,,,,,subj008,002,2022_Mar_27_1809,item,3.2.3,59.77287776956517,
,,,,,,,,,,,14.009481021999818,None,5,16.39225015199918,14.009481021999818,None,,,,,,,,,,,,,subj008,002,2022_Mar_27_1809,item,3.2.3,59.77287776956517,
cheerleader,0,0,0,32,,,,,,,,,,,,,31.42645292599991,None,30.443274075001682,31.442949839001813,36.426263264002046,None,1,0.8134639820018492,36.426263264002046,None,,,subj008,002,2022_Mar_27_1809,item,3.2.3,59.77287776956517,
hair,0,1,1,8,,,,,,,,,,,,,42.40971388500111,41.426422226002614,41.426422226002614,42.4258594669991,47.409680848999415,41.426422226002614,2,0.8518917229994258,47.409680848999415,41.426422226002614,,,subj008,002,2022_Mar_27_1809,item,3.2.3,59.77287776956517,
mirror,0,2,2,10,,,,,,,,,,,,,53.39300187200206,52.40966444500009,52.40966444500009,53.40967883800113,58.392887789999804,52.40966444500009,2,0.8367978850001236,58.392887789999804,52.40966444500009,,,subj008,002,2022_Mar_27_1809,item,3.2.3,59.77287776956517,
binoculars,0,3,3,1,,,,,,,,,,,,,64.39262855900233,63.393271053002536,63.393271053002536,64.39262855900233,69.39265178300047,63.393271053002536,2,1.6019216179993236,69.39265178300047,63.393271053002536,,,subj008,002,2022_Mar_27_1809,item,3.2.3,59.77287776956517,
knight,0,4,4,38,,,,,,,,,,,,,75.37583207400166,74.39262820600197,74.39262820600197,75.39403904700157,80.37757521000094,74.39262820600197,1,1.1250174939996214,80.37757521000094,74.39262820600197,,,subj008,002,2022_Mar_27_1809,item,3.2.3,59.77287776956517,
axe,0,5,5,0,,,,,,,,,,,,,86.36074179199932,85.37714216400127,85.37714216400127,86.37724910399993,91.36044809099985,85.37714216400127,2,0.916167637999024,91.36044809099985,85.37714216400127,,,subj008,002,2022_Mar_27_1809,item,3.2.3,59.77287776956517,
scalpel,0,6,6,19,,,,,,,,,,,,,97.34348662300181,96.3601094250007,96.3601094250007,97.36036299000261,102.34360546899916,96.3601094250007,2,0.8061210029991344,102.34360546899916,96.3601094250007,,,subj008,002,2022_Mar_27_1809,item,3.2.3,59.77287776956517,
donkey,0,7,7,23,,,,,,,,,,,,,108.32679750700117,107.34337241200046,107.34337241200046,108.34368707700196,113.32688956399943,107.34337241200046,1,1.0537990769989847,113.32688956399943,107.34337241200046,,,subj008,002,2022_Mar_27_1809,item,3.2.3,59.77287776956517,
coyote,0,8,8,27,,,,,,,,,,,,,119.31018565900013,118.32710763599971,118.32710763599971,119.32701401400118,124.31013414799963,118.32710763599971,1,1.0275693809999211,124.31013414799963,118.32710763599971,,,subj008,002,2022_Mar_27_1809,item,3.2.3,59.77287776956517,
grandfather,0,9,9,34,,,,,,,,,,,,,130.29342976800035,129.3100986089994,129.3100986089994,130.3103065159994,135.2946870630003,129.3100986089994,1,0.9518749810013105,135.2946870630003,129.3100986089994,,,subj008,002,2022_Mar_27_1809,item,3.2.3,59.77287776956517,
seahorse,0,10,10,33,,,,,,,,,,,,,141.277885391999,140.29386132299987,140.29386132299987,141.29466069400223,146.27791851499933,140.29386132299987,1,0.9628087429991865,146.27791851499933,140.29386132299987,,,subj008,002,2022_Mar_27_1809,item,3.2.3,59.77287776956517,
camera,0,11,11,3,,,,,,,,,,,,,152.26107398599925,151.27721613900212,151.27721613900212,152.27780444699965,157.26113683600124,151.27721613900212,2,1.0875509030011017,157.26113683600124,151.27721613900212,,,subj008,002,2022_Mar_27_1809,item,3.2.3,59.77287776956517,
necklace,0,12,12,12,,,,,,,,,,,,,163.24415614300233,162.26048669699958,162.26048669699958,163.26050333199964,168.24439559900202,162.26048669699958,2,0.627334017000976,168.24439559900202,162.26048669699958,,,subj008,002,2022_Mar_27_1809,item,3.2.3,59.77287776956517,
chipmunk,0,13,13,26,,,,,,,,,,,,,174.22765624300155,173.24396816100125,173.24396816100125,174.2440255420006,179.2271156759998,173.24396816100125,1,0.7886018790013622,179.2271156759998,173.24396816100125,,,subj008,002,2022_Mar_27_1809,item,3.2.3,59.77287776956517,
umbrella,0,14,14,5,,,,,,,,,,,,,185.21034037299978,184.22733071900075,184.22733071900075,185.22715354899992,190.2103908200006,184.22733071900075,2,0.711303232001228,190.2103908200006,184.22733071900075,,,subj008,002,2022_Mar_27_1809,item,3.2.3,59.77287776956517,
fingerprint,0,15,15,11,,,,,,,,,,,,,196.193453013002,195.21029096500206,195.21029096500206,196.2104219310022,201.193631508002,195.21029096500206,2,1.0900877929998387,201.193631508002,195.21029096500206,,,subj008,002,2022_Mar_27_1809,item,3.2.3,59.77287776956517,
ladybug,0,16,16,30,,,,,,,,,,,,,207.1768972710015,206.194611531002,206.194611531002,207.21051798500048,212.17810629700034,206.194611531002,1,1.37260763499944,212.17810629700034,206.194611531002,,,subj008,002,2022_Mar_27_1809,item,3.2.3,59.77287776956517,
hummingbird,0,17,17,28,,,,,,,,,,,,,218.16107256800024,217.17722606200186,217.17722606200186,218.17796993700176,223.16131441900143,217.17722606200186,1,0.6882837070006644,223.16131441900143,217.17722606200186,,,subj008,002,2022_Mar_27_1809,item,3.2.3,59.77287776956517,
keyboard,0,18,18,15,,,,,,,,,,,,,229.1445207479992,228.1609602589997,228.1609602589997,229.16134151400183,234.1445765230019,228.1609602589997,2,0.7761881210026331,234.1445765230019,228.1609602589997,,,subj008,002,2022_Mar_27_1809,item,3.2.3,59.77287776956517,
snowball,0,19,19,14,,,,,,,,,,,,,240.1277829690007,239.1437017419994,239.1437017419994,240.14445257700208,245.12784493000072,239.1437017419994,2,1.281771251000464,245.12784493000072,239.1437017419994,,,subj008,002,2022_Mar_27_1809,item,3.2.3,59.77287776956517,
cabdriver,0,20,20,36,,,,,,,,,,,,,251.12791633600136,250.12659929599977,250.12659929599977,251.12791633600136,256.1276309720015,250.12659929599977,1,1.8349288549979974,256.1276309720015,250.12659929599977,,,subj008,002,2022_Mar_27_1809,item,3.2.3,59.77287776956517,
stove,0,21,21,13,,,,,,,,,,,,,262.11050163000255,261.12733208200007,261.12733208200007,262.1273586870011,267.1106440399999,261.12733208200007,2,1.6620463699982793,267.1106440399999,261.12733208200007,,,subj008,002,2022_Mar_27_1809,item,3.2.3,59.77287776956517,
waterfall,0,22,22,18,,,,,,,,,,,,,273.1068726129997,272.1236795850018,272.1236795850018,273.12369896699965,278.1066556100013,272.1236795850018,2,0.867926147999242,278.1066556100013,272.1236795850018,,,subj008,002,2022_Mar_27_1809,item,3.2.3,59.77287776956517,
ketchup,0,23,23,2,,,,,,,,,,,,,284.0900748970016,283.10681024000223,283.10681024000223,284.106365292002,289.0901080190015,283.10681024000223,2,2.0906086929971934,289.0901080190015,283.10681024000223,,,subj008,002,2022_Mar_27_1809,item,3.2.3,59.77287776956517,
baby,0,24,24,20,,,,,,,,,,,,,295.07339033099925,305.07303496500026,294.0898115320015,295.0896188830011,300.0779058139997,294.0898115320015,1,1.2258144969964633,300.0779058139997,294.0898115320015,,,subj008,002,2022_Mar_27_1809,item,3.2.3,59.77287776956517,
swan,0,25,25,29,,,,,,,,,,,,,306.0898283980023,None,305.089801549002,306.1065847480022,311.0730334489999,316.078066828999,1,1.7376548550018924,311.0730334489999,316.078066828999,,,subj008,002,2022_Mar_27_1809,item,3.2.3,59.77287776956517,
platypus,0,26,26,35,,,,,,,,,,,,,317.0781177680001,316.1062422470022,316.1062422470022,317.12312214100166,322.07806387200253,None,1,0.9066877409968583,322.07806387200253,None,,,subj008,002,2022_Mar_27_1809,item,3.2.3,59.77287776956517,
leopard,0,27,27,24,,,,,,,,,,,,,328.0726026770026,338.072791685001,327.0894460439995,328.08955272800085,333.07757052700254,327.0894460439995,1,0.6000182400021004,333.07757052700254,327.0894460439995,,,subj008,002,2022_Mar_27_1809,item,3.2.3,59.77287776956517,
porcupine,0,28,28,22,,,,,,,,,,,,,339.0727544149995,349.07241651500226,338.0889816480012,339.08921561100215,344.07728244100144,338.0889816480012,1,0.9474273349987925,344.07728244100144,338.0889816480012,,,subj008,002,2022_Mar_27_1809,item,3.2.3,59.77287776956517,
treadmill,0,29,29,16,,,,,,,,,,,,,350.07241882000017,None,349.08916799600047,350.0892568400013,355.07825326500097,349.08916799600047,2,1.6104572149997693,355.07825326500097,349.08916799600047,,,subj008,002,2022_Mar_27_1809,item,3.2.3,59.77287776956517,
bulldozer,0,30,30,17,,,,,,,,,,,,,361.0783287480008,360.07763359599994,360.07763359599994,361.0783287480008,366.0780243070003,360.07763359599994,2,1.2145847549982136,366.0780243070003,360.07763359599994,,,subj008,002,2022_Mar_27_1809,item,3.2.3,59.77287776956517,
microscope,0,31,31,6,,,,,,,,,,,,,372.0887956539991,371.0888937710006,371.0888937710006,372.0943212890015,377.07213399600005,382.060973484,2,1.0515565690002404,377.07213399600005,382.060973484,,,subj008,002,2022_Mar_27_1809,item,3.2.3,59.77287776956517,
crab,0,32,32,31,,,,,,,,,,,,,383.0885363160014,382.0950381190014,382.0950381190014,383.0943600089995,388.08865666100246,None,1,0.9069330230013293,388.08865666100246,None,,,subj008,002,2022_Mar_27_1809,item,3.2.3,59.77287776956517,
elephant,0,33,33,21,,,,,,,,,,,,,394.0718128890003,393.08823874800146,393.08823874800146,394.0777799520001,399.0776743509996,393.08823874800146,None,,399.0776743509996,393.08823874800146,,,subj008,002,2022_Mar_27_1809,item,3.2.3,59.77287776956517,
walrus,0,34,34,25,,,,,,,,,,,,,405.0718751109998,404.0780846279995,404.0780846279995,405.0879255960026,410.0610429160006,415.0614496160015,1,1.1406901830014249,410.0610429160006,415.0614496160015,,,subj008,002,2022_Mar_27_1809,item,3.2.3,59.77287776956517,
hairstylist,0,35,35,37,,,,,,,,,,,,,416.0611404459996,415.07736406500044,415.07736406500044,416.07753359100025,421.06154346699986,None,1,1.2591631809991668,421.06154346699986,None,,,subj008,002,2022_Mar_27_1809,item,3.2.3,59.77287776956517,
cheesecake,0,36,36,7,,,,,,,,,,,,,427.0547424770011,426.07157122900026,426.07157122900026,427.0614162210004,432.04432606400223,437.0449989059998,2,0.738375555996754,432.04432606400223,437.0449989059998,,,subj008,002,2022_Mar_27_1809,item,3.2.3,59.77287776956517,
violinist,0,37,37,39,,,,,,,,,,,,,438.0443565019996,437.0614328949996,437.0614328949996,438.06202090400257,443.04527032999977,None,1,1.232342585000879,443.04527032999977,None,,,subj008,002,2022_Mar_27_1809,item,3.2.3,59.77287776956517,
passport,0,38,38,4,,,,,,,,,,,,,449.02761760700014,459.02772244600055,448.0544439260011,449.0615859720019,454.07135710700095,448.0544439260011,2,1.773235647000547,454.07135710700095,448.0544439260011,,,subj008,002,2022_Mar_27_1809,item,3.2.3,59.77287776956517,
airplane,0,39,39,9,,,,,,,,,,,,,460.0613510709991,None,459.07851594300155,460.07766503899984,465.0618599970003,459.07851594300155,2,1.1088311029998295,465.0618599970003,459.07851594300155,,,subj008,002,2022_Mar_27_1809,item,3.2.3,59.77287776956517,
,,,,,,,,,,,,,,,,,,,,,,,,,,,470.06109667400233,None,,,,,,,
