Word,trials.thisRepN,trials.thisTrialN,trials.thisN,trials.thisIndex,text.started,text.stopped,key_resp.keys,key_resp.rt,key_resp.started,key_resp.stopped,text_2.started,text_2.stopped,key_resp_2.keys,key_resp_2.rt,key_resp_2.started,key_resp_2.stopped,text_3.started,text_3.stopped,text_4.started,text_4.stopped,text_5.started,text_5.stopped,key_resp_3.keys,key_resp_3.rt,key_resp_3.started,key_resp_3.stopped,text_6.started,text_6.stopped,participant,session,date,expName,psychopyVersion,frameRate,
,,,,,6.1600630579923745,None,1,11.39592253198498,6.1600630579923745,None,,,,,,,,,,,,,,,,,,,subj024,001,2023_Feb_22_1021,item_20(VR),3.2.3,59.88521178988627,
,,,,,,,,,,,17.577315533999354,None,5,16.997782121005002,17.577315533999354,None,,,,,,,,,,,,,subj024,001,2023_Feb_22_1021,item_20(VR),3.2.3,59.88521178988627,
hair,0,0,0,9,,,,,,,,,,,,,35.58919976800098,None,34.60550405201502,35.606010001996765,40.589292879012646,None,2,0.8337134439789224,40.589292879012646,None,,,subj024,001,2023_Feb_22_1021,item_20(VR),3.2.3,59.88521178988627,
chipmunk,0,1,1,18,,,,,,,,,,,,,46.589356437994866,45.58785408799304,45.58785408799304,46.589356437994866,51.58864109800197,45.58785408799304,1,0.3425120130123105,51.58864109800197,45.58785408799304,,,subj024,001,2023_Feb_22_1021,item_20(VR),3.2.3,59.88521178988627,
axe,0,2,2,6,,,,,,,,,,,,,57.57270613199216,56.589511486992706,56.589511486992706,57.58951444999548,62.5778195830062,56.589511486992706,2,0.47232894101762213,62.5778195830062,56.589511486992706,,,subj024,001,2023_Feb_22_1021,item_20(VR),3.2.3,59.88521178988627,
hummingbird,0,3,3,5,,,,,,,,,,,,,68.57701833100873,67.57660744601162,67.57660744601162,68.57701833100873,73.57254893399659,67.57660744601162,1,0.5524371700012125,73.57254893399659,67.57660744601162,,,subj024,001,2023_Feb_22_1021,item_20(VR),3.2.3,59.88521178988627,
ketchup,0,4,4,15,,,,,,,,,,,,,79.57636877900222,78.57733302999986,78.57733302999986,79.59435034901253,84.57684399798745,78.57733302999986,2,0.7182891699776519,84.57684399798745,78.57733302999986,,,subj024,001,2023_Feb_22_1021,item_20(VR),3.2.3,59.88521178988627,
grandfather,0,5,5,7,,,,,,,,,,,,,90.55596702499315,89.57206350800698,89.57206350800698,90.57694246500614,95.55995454199729,89.57206350800698,1,0.8130338710034266,95.55995454199729,89.57206350800698,,,subj024,001,2023_Feb_22_1021,item_20(VR),3.2.3,59.88521178988627,
passport,0,6,6,16,,,,,,,,,,,,,101.55607685798896,100.55995697001345,100.55995697001345,101.57724658199004,106.55538331001299,100.55995697001345,2,0.9537524490151554,106.55538331001299,100.55995697001345,,,subj024,001,2023_Feb_22_1021,item_20(VR),3.2.3,59.88521178988627,
microscope,0,7,7,1,,,,,,,,,,,,,112.53948019401287,111.55545314200572,111.55545314200572,112.5561425719934,117.5395653170126,111.55545314200572,2,0.561570969002787,117.5395653170126,111.55545314200572,,,subj024,001,2023_Feb_22_1021,item_20(VR),3.2.3,59.88521178988627,
porcupine,0,8,8,13,,,,,,,,,,,,,123.5437528899929,122.54272512099124,122.54272512099124,123.5437528899929,128.5396817259898,122.54272512099124,1,1.0014289469982032,128.5396817259898,122.54272512099124,,,subj024,001,2023_Feb_22_1021,item_20(VR),3.2.3,59.88521178988627,
baby,0,9,9,14,,,,,,,,,,,,,134.5433164999995,133.54315102499095,133.54315102499095,134.5433164999995,139.5434102040017,133.54315102499095,1,0.48265918201650493,139.5434102040017,133.54315102499095,,,subj024,001,2023_Feb_22_1021,item_20(VR),3.2.3,59.88521178988627,
leopard,0,10,10,0,,,,,,,,,,,,,145.5226285670069,144.5390422620112,144.5390422620112,145.54343188999337,150.52581886999542,144.5390422620112,1,0.6652125309919938,150.52581886999542,144.5390422620112,,,subj024,001,2023_Feb_22_1021,item_20(VR),3.2.3,59.88521178988627,
waterfall,0,11,11,2,,,,,,,,,,,,,156.52199971000664,155.52570091601228,155.52570091601228,156.54280390200438,161.5229358279903,155.52570091601228,2,0.9051992110034917,161.5229358279903,155.52570091601228,,,subj024,001,2023_Feb_22_1021,item_20(VR),3.2.3,59.88521178988627,
necklace,0,12,12,3,,,,,,,,,,,,,167.50619558000471,166.52199258600012,166.52199258600012,167.52302841100027,172.5063043209957,166.52199258600012,2,0.7268233450013213,172.5063043209957,166.52199258600012,,,subj024,001,2023_Feb_22_1021,item_20(VR),3.2.3,59.88521178988627,
mirror,0,13,13,11,,,,,,,,,,,,,178.48953906301176,177.5055731240136,177.5055731240136,178.5055531290127,183.4888981129916,177.5055731240136,2,0.8382009209890384,183.4888981129916,177.5055731240136,,,subj024,001,2023_Feb_22_1021,item_20(VR),3.2.3,59.88521178988627,
knight,0,14,14,4,,,,,,,,,,,,,189.47316317699733,188.4889419139945,188.4889419139945,189.4897936579946,194.47304741700646,188.4889419139945,1,0.9359329250000883,194.47304741700646,188.4889419139945,,,subj024,001,2023_Feb_22_1021,item_20(VR),3.2.3,59.88521178988627,
snowball,0,15,15,19,,,,,,,,,,,,,200.45630205998896,199.47224948200164,199.47224948200164,200.47307251600432,205.4563481239893,199.47224948200164,2,0.7098101490119006,205.4563481239893,199.47224948200164,,,subj024,001,2023_Feb_22_1021,item_20(VR),3.2.3,59.88521178988627,
cheerleader,0,16,16,12,,,,,,,,,,,,,211.4396029819909,210.45628506099456,210.45628506099456,211.45568605899462,216.43961911599035,210.45628506099456,1,1.0884837320190854,216.43961911599035,210.45628506099456,,,subj024,001,2023_Feb_22_1021,item_20(VR),3.2.3,59.88521178988627,
cabdriver,0,17,17,8,,,,,,,,,,,,,222.4390211320133,221.43873795701074,221.43873795701074,222.4390211320133,227.43988951301435,221.43873795701074,1,0.5030982329917606,227.43988951301435,221.43873795701074,,,subj024,001,2023_Feb_22_1021,item_20(VR),3.2.3,59.88521178988627,
ladybug,0,18,18,10,,,,,,,,,,,,,233.42315844498808,232.43886866699904,232.43886866699904,233.43919562301016,238.42327355899033,232.43886866699904,1,0.6548776800045744,238.42327355899033,232.43886866699904,,,subj024,001,2023_Feb_22_1021,item_20(VR),3.2.3,59.88521178988627,
treadmill,0,19,19,17,,,,,,,,,,,,,244.40657614299562,243.42273130701506,243.42273130701506,244.42250945299747,249.40604024298955,243.42273130701506,2,0.8270925619872287,249.40604024298955,243.42273130701506,,,subj024,001,2023_Feb_22_1021,item_20(VR),3.2.3,59.88521178988627,
,,,,,,,,,,,,,,,,,,,,,,,,,,,254.40667073099758,None,,,,,,,
