Word,trials.thisRepN,trials.thisTrialN,trials.thisN,trials.thisIndex,text.started,text.stopped,key_resp.keys,key_resp.rt,key_resp.started,key_resp.stopped,text_2.started,text_2.stopped,key_resp_2.keys,key_resp_2.rt,key_resp_2.started,key_resp_2.stopped,text_3.started,text_3.stopped,text_4.started,text_4.stopped,text_5.started,text_5.stopped,key_resp_3.keys,key_resp_3.started,key_resp_3.stopped,key_resp_3.rt,text_6.started,text_6.stopped,participant,session,date,expName,psychopyVersion,frameRate,
,,,,,6.500768066995079,None,1,10.791710110992426,6.500768066995079,None,,,,,,,,,,,,,,,,,,,subj023,001,2023_Feb_21_1659,item,3.2.3,59.96073555462373,
,,,,,,,,,,,17.31994652899448,None,5,19.076749474013923,17.31994652899448,None,,,,,,,,,,,,,subj023,001,2023_Feb_21_1659,item,3.2.3,59.96073555462373,
elephant,0,0,0,21,,,,,,,,,,,,,37.42126450300566,None,36.43660090400954,37.438090845011175,42.420203435001895,None,None,42.420203435001895,None,,,,subj023,001,2023_Feb_21_1659,item,3.2.3,59.96073555462373,
axe,0,1,1,0,,,,,,,,,,,,,48.404173735005315,47.42037726100534,47.42037726100534,48.42032979000942,53.40432866298943,47.42037726100534,None,53.40432866298943,47.42037726100534,,,,subj023,001,2023_Feb_21_1659,item,3.2.3,59.96073555462373,
snowball,0,2,2,14,,,,,,,,,,,,,59.40402213699417,58.403666288009845,58.403666288009845,59.40402213699417,64.40000074799173,69.39996704799705,2,64.40000074799173,69.39996704799705,0.2806657990149688,,,subj023,001,2023_Feb_21_1659,item,3.2.3,59.96073555462373,
crab,0,3,3,31,,,,,,,,,,,,,70.40028863601037,69.41588701700675,69.41588701700675,70.417068507988,75.39892815198982,None,1,75.39892815198982,None,0.5046910530072637,,,subj023,001,2023_Feb_21_1659,item,3.2.3,59.96073555462373,
treadmill,0,4,4,16,,,,,,,,,,,,,81.39891191601055,80.39995584401186,80.39995584401186,81.39891191601055,86.3882996510074,91.39966979500605,2,86.3882996510074,91.39966979500605,0.28019629599293694,,,subj023,001,2023_Feb_21_1659,item,3.2.3,59.96073555462373,
waterfall,0,5,5,18,,,,,,,,,,,,,92.40493226700346,91.41641552798683,91.41641552798683,92.42158388099051,97.3999873129942,102.39878809999209,1,97.3999873129942,102.39878809999209,0.4646600120177027,,,subj023,001,2023_Feb_21_1659,item,3.2.3,59.96073555462373,
cabdriver,0,6,6,36,,,,,,,,,,,,,103.39994461101014,113.39966856199317,102.41532290700707,103.40428938801051,108.4042437110038,None,1,108.4042437110038,None,0.6514164080144837,,,subj023,001,2023_Feb_21_1659,item,3.2.3,59.96073555462373,
donkey,0,7,7,23,,,,,,,,,,,,,114.40438957200968,None,113.41623981800512,114.42045781499473,119.39957985299407,113.41623981800512,1,119.39957985299407,113.41623981800512,0.6028636910195928,,,subj023,001,2023_Feb_21_1659,item,3.2.3,59.96073555462373,
porcupine,0,8,8,22,,,,,,,,,,,,,125.38771431599162,135.39805309698568,124.40435332799098,125.40488832601113,130.39979709099862,124.40435332799098,1,130.39979709099862,124.40435332799098,1.0928211449936498,,,subj023,001,2023_Feb_21_1659,item,3.2.3,59.96073555462373,
binoculars,0,9,9,1,,,,,,,,,,,,,136.4161382149905,None,135.41482682700735,136.4161382149905,141.3979856109945,146.39942606099066,2,141.3979856109945,146.39942606099066,0.31851252500200644,,,subj023,001,2023_Feb_21_1659,item,3.2.3,59.96073555462373,
grandfather,0,10,10,34,,,,,,,,,,,,,147.39804643398384,146.4161939859914,146.4161939859914,147.4207597700006,152.40483669098467,None,1,152.40483669098467,None,0.8218265319883358,,,subj023,001,2023_Feb_21_1659,item,3.2.3,59.96073555462373,
platypus,0,11,11,35,,,,,,,,,,,,,158.38814638898475,157.40489676300786,157.40489676300786,158.40558950099512,163.38823172901175,157.40489676300786,1,163.38823172901175,157.40489676300786,0.8783902360009961,,,subj023,001,2023_Feb_21_1659,item,3.2.3,59.96073555462373,
umbrella,0,12,12,5,,,,,,,,,,,,,169.382288977009,168.38825322699267,168.38825322699267,169.3878120360023,174.37154222500976,179.38259313401068,2,174.37154222500976,179.38259313401068,0.5080663459957577,,,subj023,001,2023_Feb_21_1659,item,3.2.3,59.96073555462373,
cheerleader,0,13,13,32,,,,,,,,,,,,,180.39744866799447,179.3985653280106,179.3985653280106,180.39744866799447,185.38853789999848,None,1,185.38853789999848,None,0.3330963350017555,,,subj023,001,2023_Feb_21_1659,item,3.2.3,59.96073555462373,
fingerprint,0,14,14,11,,,,,,,,,,,,,191.37076117200195,201.3821346469922,190.39857589500025,191.41570007399423,196.387833115994,190.39857589500025,2,196.387833115994,190.39857589500025,0.6337999129900709,,,subj023,001,2023_Feb_21_1659,item,3.2.3,59.96073555462373,
stove,0,15,15,13,,,,,,,,,,,,,202.39879704799387,None,201.39755113300635,202.4152812109969,207.38839769701008,212.39853874000255,2,207.38839769701008,212.39853874000255,0.41423269599908963,,,subj023,001,2023_Feb_21_1659,item,3.2.3,59.96073555462373,
knight,0,16,16,38,,,,,,,,,,,,,213.4052915420034,212.4153042389953,212.4153042389953,213.4313427550078,218.40498525099247,None,1,218.40498525099247,None,0.744635618000757,,,subj023,001,2023_Feb_21_1659,item,3.2.3,59.96073555462373,
passport,0,17,17,4,,,,,,,,,,,,,224.3886482740054,234.3884285360109,223.4046014699852,224.405065088009,229.3982484290027,223.4046014699852,2,229.3982484290027,223.4046014699852,0.5492762519861571,,,subj023,001,2023_Feb_21_1659,item,3.2.3,59.96073555462373,
cheesecake,0,18,18,7,,,,,,,,,,,,,235.3880398760084,None,234.41491685298388,235.4315081370005,240.3971178479842,234.41491685298388,2,240.3971178479842,234.41491685298388,0.3455305740062613,,,subj023,001,2023_Feb_21_1659,item,3.2.3,59.96073555462373,
mirror,0,19,19,10,,,,,,,,,,,,,246.3885507209925,245.39828179701,245.39828179701,246.40473063199897,251.39761835400714,245.39828179701,2,251.39761835400714,245.39828179701,0.5379382980172522,,,subj023,001,2023_Feb_21_1659,item,3.2.3,59.96073555462373,
camera,0,20,20,3,,,,,,,,,,,,,257.3980407269846,256.3978581739939,256.3978581739939,257.3980407269846,262.37205690698465,267.37130223598797,2,262.37205690698465,267.37130223598797,0.5735471329826396,,,subj023,001,2023_Feb_21_1659,item,3.2.3,59.96073555462373,
baby,0,21,21,20,,,,,,,,,,,,,268.38807666598586,278.3976928300108,267.4050678079948,268.404587713012,273.39640317999874,None,1,273.39640317999874,None,0.47828211801243015,,,subj023,001,2023_Feb_21_1659,item,3.2.3,59.96073555462373,
microscope,0,22,22,6,,,,,,,,,,,,,279.38827021000907,289.39782481698785,278.41422226300347,279.4215309660067,284.4050672329904,278.41422226300347,2,284.4050672329904,278.41422226300347,0.5304629599850159,,,subj023,001,2023_Feb_21_1659,item,3.2.3,59.96073555462373,
seahorse,0,23,23,33,,,,,,,,,,,,,290.41415356399375,None,289.41432448799605,290.430991317,295.3972742949845,300.4042730059882,1,295.3972742949845,300.4042730059882,0.34927434401470236,,,subj023,001,2023_Feb_21_1659,item,3.2.3,59.96073555462373,
bulldozer,0,24,24,17,,,,,,,,,,,,,301.40496043500025,311.404780123994,300.4222703980049,301.43102874798933,306.4137221679848,None,2,306.4137221679848,None,1.0479281390144024,,,subj023,001,2023_Feb_21_1659,item,3.2.3,59.96073555462373,
violinist,0,25,25,39,,,,,,,,,,,,,312.4137495039904,None,311.4306611040083,312.43057056498947,317.4055389389978,322.4049221909954,1,317.4055389389978,322.4049221909954,0.6039947899989784,,,subj023,001,2023_Feb_21_1659,item,3.2.3,59.96073555462373,
scalpel,0,26,26,19,,,,,,,,,,,,,323.41357192900614,322.4220544990094,322.4220544990094,323.4307935370016,328.4139675839979,None,2,328.4139675839979,None,0.6815500509983394,,,subj023,001,2023_Feb_21_1659,item,3.2.3,59.96073555462373,
necklace,0,27,27,12,,,,,,,,,,,,,334.4046304799849,333.421824465011,333.421824465011,334.42226048000157,339.4132991069928,333.421824465011,2,339.4132991069928,333.421824465011,0.665240267990157,,,subj023,001,2023_Feb_21_1659,item,3.2.3,59.96073555462373,
ketchup,0,28,28,2,,,,,,,,,,,,,345.38775675400393,344.4134244440065,344.4134244440065,345.42245842400007,350.38884724100353,344.4134244440065,2,350.38884724100353,344.4134244440065,0.45675795298302546,,,subj023,001,2023_Feb_21_1659,item,3.2.3,59.96073555462373,
leopard,0,29,29,24,,,,,,,,,,,,,356.371710056992,355.388914635987,355.388914635987,356.3888770120102,361.37222207000013,355.388914635987,1,361.37222207000013,355.388914635987,0.5992418059904594,,,subj023,001,2023_Feb_21_1659,item,3.2.3,59.96073555462373,
walrus,0,30,30,25,,,,,,,,,,,,,367.3552248830092,366.3718902110122,366.3718902110122,367.3722692989977,372.3555548469885,366.3718902110122,1,372.3555548469885,366.3718902110122,0.7549427689809818,,,subj023,001,2023_Feb_21_1659,item,3.2.3,59.96073555462373,
keyboard,0,31,31,15,,,,,,,,,,,,,378.33866289499565,377.3553439009993,377.3553439009993,378.35565741799655,383.3465622829972,377.3553439009993,2,383.3465622829972,377.3553439009993,0.805052434996469,,,subj023,001,2023_Feb_21_1659,item,3.2.3,59.96073555462373,
ladybug,0,32,32,30,,,,,,,,,,,,,389.34627298099804,388.346057644987,388.346057644987,389.34627298099804,394.32988781799213,399.3223265139968,1,394.32988781799213,399.3223265139968,0.6707349259813782,,,subj023,001,2023_Feb_21_1659,item,3.2.3,59.96073555462373,
hairstylist,0,33,33,37,,,,,,,,,,,,,400.34560385299847,399.3631775499962,399.3631775499962,400.3555378179881,405.3384593689989,410.345973005984,1,405.3384593689989,410.345973005984,0.5559758640010841,,,subj023,001,2023_Feb_21_1659,item,3.2.3,59.96073555462373,
hummingbird,0,34,34,28,,,,,,,,,,,,,411.34476050399826,410.3625168919971,410.3625168919971,411.3719844330044,416.35584000500967,None,1,416.35584000500967,None,0.498667370993644,,,subj023,001,2023_Feb_21_1659,item,3.2.3,59.96073555462373,
hair,0,35,35,8,,,,,,,,,,,,,422.33905837498605,421.35583093899186,421.35583093899186,422.3557174089947,427.3386555420002,421.35583093899186,2,427.3386555420002,421.35583093899186,0.5598263370047789,,,subj023,001,2023_Feb_21_1659,item,3.2.3,59.96073555462373,
airplane,0,36,36,9,,,,,,,,,,,,,433.32231230600155,432.33921886899043,432.33921886899043,433.3390575129888,438.32168266098597,432.33921886899043,2,438.32168266098597,432.33921886899043,0.7519403409969527,,,subj023,001,2023_Feb_21_1659,item,3.2.3,59.96073555462373,
swan,0,37,37,29,,,,,,,,,,,,,444.32884453900624,443.32876085001044,443.32876085001044,444.34567630599486,449.3289426660049,443.32876085001044,1,449.3289426660049,443.32876085001044,0.7106797409942374,,,subj023,001,2023_Feb_21_1659,item,3.2.3,59.96073555462373,
coyote,0,38,38,27,,,,,,,,,,,,,455.3290431560017,454.3290208620019,454.3290208620019,455.345422702987,460.322350611008,454.3290208620019,1,460.322350611008,454.3290208620019,0.6122720880084671,,,subj023,001,2023_Feb_21_1659,item,3.2.3,59.96073555462373,
chipmunk,0,39,39,26,,,,,,,,,,,,,466.30562041301164,476.3117512030003,465.3284174930013,466.3392299179977,471.32173514401074,465.3284174930013,1,471.32173514401074,465.3284174930013,0.7717356999928597,,,subj023,001,2023_Feb_21_1659,item,3.2.3,59.96073555462373,
,,,,,,,,,,,,,,,,,,,,,,,,,,,476.32872354399296,None,,,,,,,
