Word,trials.thisRepN,trials.thisTrialN,trials.thisN,trials.thisIndex,text.started,text.stopped,key_resp.keys,key_resp.rt,key_resp.started,key_resp.stopped,text_2.started,text_2.stopped,key_resp_2.keys,key_resp_2.rt,key_resp_2.started,key_resp_2.stopped,text_3.started,text_3.stopped,text_4.started,text_4.stopped,text_5.started,text_5.stopped,key_resp_3.keys,key_resp_3.rt,key_resp_3.started,key_resp_3.stopped,text_6.started,text_6.stopped,participant,session,date,expName,psychopyVersion,frameRate,
,,,,,8.11313508899184,None,1,16.72216100600781,8.11313508899184,None,,,,,,,,,,,,,,,,,,,subj022,001,2022_Oct_24_1819,item,3.2.3,59.81877769573915,
,,,,,,,,,,,24.86859135099803,None,5,16.888708889018744,24.86859135099803,None,,,,,,,,,,,,,subj022,001,2022_Oct_24_1819,item,3.2.3,59.81877769573915,
leopard,0,0,0,24,,,,,,,,,,,,,42.780359995987965,None,41.79640569598996,42.79641961801099,47.77863034399343,None,1,0.6995714549848344,47.77863034399343,None,,,subj022,001,2022_Oct_24_1819,item,3.2.3,59.81877769573915,
cabdriver,0,1,1,36,,,,,,,,,,,,,53.77885038399836,52.78023281699279,52.78023281699279,53.77885038399836,58.76913721000892,52.78023281699279,1,0.7330008950084448,58.76913721000892,52.78023281699279,,,subj022,001,2022_Oct_24_1819,item,3.2.3,59.81877769573915,
ketchup,0,2,2,2,,,,,,,,,,,,,64.76894520400674,63.78540292600519,63.78540292600519,64.78538510599174,69.76369007999892,74.7632662540127,2,0.9266170120099559,69.76369007999892,74.7632662540127,,,subj022,001,2022_Oct_24_1819,item,3.2.3,59.81877769573915,
baby,0,3,3,20,,,,,,,,,,,,,75.76367516501341,74.7844535720069,74.7844535720069,75.79690460101119,80.76342873298563,None,1,0.6967295570066199,80.76342873298563,None,,,subj022,001,2022_Oct_24_1819,item,3.2.3,59.81877769573915,
seahorse,0,4,4,33,,,,,,,,,,,,,86.74697785498574,85.76382405500044,85.76382405500044,86.76268230201094,91.7513054459996,85.76382405500044,1,1.1040173300134484,91.7513054459996,85.76382405500044,,,subj022,001,2022_Oct_24_1819,item,3.2.3,59.81877769573915,
umbrella,0,5,5,5,,,,,,,,,,,,,97.73034061599174,96.75174038700061,96.75174038700061,97.76394997100579,102.73453563300427,96.75174038700061,2,1.0507545009895694,102.73453563300427,96.75174038700061,,,subj022,001,2022_Oct_24_1819,item,3.2.3,59.81877769573915,
elephant,0,6,6,21,,,,,,,,,,,,,108.7305277879932,107.7344032760011,107.7344032760011,108.75157885800581,113.73061056699953,107.7344032760011,1,0.5796950389922131,113.73061056699953,107.7344032760011,,,subj022,001,2022_Oct_24_1819,item,3.2.3,59.81877769573915,
bulldozer,0,7,7,17,,,,,,,,,,,,,119.73484666598961,118.72996389798936,118.72996389798936,119.73484666598961,124.73026823200053,118.72996389798936,2,1.651887104002526,124.73026823200053,118.72996389798936,,,subj022,001,2022_Oct_24_1819,item,3.2.3,59.81877769573915,
waterfall,0,8,8,18,,,,,,,,,,,,,130.73039169498952,140.73039513701224,129.73489569799858,130.73039169498952,135.7345325560018,129.73489569799858,2,1.8397830740141217,135.7345325560018,129.73489569799858,,,subj022,001,2022_Oct_24_1819,item,3.2.3,59.81877769573915,
hair,0,9,9,8,,,,,,,,,,,,,141.73459719400853,None,140.7513763589959,141.75135874201078,146.73050184501335,140.7513763589959,2,0.7977101439901162,146.73050184501335,140.7513763589959,,,subj022,001,2022_Oct_24_1819,item,3.2.3,59.81877769573915,
passport,0,10,10,4,,,,,,,,,,,,,152.7139481639897,151.72966490598628,151.72966490598628,152.73082494401024,157.71707502298523,151.72966490598628,2,1.5121169319900218,157.71707502298523,151.72966490598628,,,subj022,001,2022_Oct_24_1819,item,3.2.3,59.81877769573915,
treadmill,0,11,11,16,,,,,,,,,,,,,163.71327935400768,162.7132582429913,162.7132582429913,163.71327935400768,168.69727182100178,173.69743774901144,2,0.9440204160055146,168.69727182100178,173.69743774901144,,,subj022,001,2022_Oct_24_1819,item,3.2.3,59.81877769573915,
binoculars,0,12,12,1,,,,,,,,,,,,,174.7134181880101,173.71313152401126,173.71313152401126,174.7134181880101,179.71344085098826,None,2,1.4628414660110138,179.71344085098826,None,,,subj022,001,2022_Oct_24_1819,item,3.2.3,59.81877769573915,
stove,0,13,13,13,,,,,,,,,,,,,185.69765489699785,184.7131651979871,184.7131651979871,185.71398276399123,190.6972503470024,184.7131651979871,2,1.2019115170114674,190.6972503470024,184.7131651979871,,,subj022,001,2022_Oct_24_1819,item,3.2.3,59.81877769573915,
airplane,0,14,14,9,,,,,,,,,,,,,196.68005210900446,195.69793262900203,195.69793262900203,196.7133310190111,201.68008468599874,195.69793262900203,2,1.7190814389905427,201.68008468599874,195.69793262900203,,,subj022,001,2022_Oct_24_1819,item,3.2.3,59.81877769573915,
coyote,0,15,15,27,,,,,,,,,,,,,207.66353738299222,206.68011193699203,206.68011193699203,207.6806929850136,212.66356503698626,206.68011193699203,1,1.8355985730013344,212.66356503698626,206.68011193699203,,,subj022,001,2022_Oct_24_1819,item,3.2.3,59.81877769573915,
swan,0,16,16,29,,,,,,,,,,,,,218.6471496539889,217.66346014899318,217.66346014899318,218.66328036700725,223.64715720398817,217.66346014899318,1,1.0941640630189795,223.64715720398817,217.66346014899318,,,subj022,001,2022_Oct_24_1819,item,3.2.3,59.81877769573915,
axe,0,17,17,0,,,,,,,,,,,,,229.63298175801174,228.64705845501157,228.64705845501157,229.64733680599602,234.63028459600173,239.6307174389949,2,1.2809909659845289,234.63028459600173,239.6307174389949,,,subj022,001,2022_Oct_24_1819,item,3.2.3,59.81877769573915,
donkey,0,18,18,23,,,,,,,,,,,,,240.63071539701195,239.64672634899034,239.64672634899034,240.64763187299832,245.63003433099948,None,1,0.48511676499038003,245.63003433099948,None,,,subj022,001,2022_Oct_24_1819,item,3.2.3,59.81877769573915,
keyboard,0,19,19,15,,,,,,,,,,,,,251.61406399900443,250.6301466320001,250.6301466320001,251.63091884698952,256.6141324590135,250.6301466320001,2,0.6221510759787634,256.6141324590135,250.6301466320001,,,subj022,001,2022_Oct_24_1819,item,3.2.3,59.81877769573915,
fingerprint,0,20,20,11,,,,,,,,,,,,,262.5974361480039,261.61317476799013,261.61317476799013,262.6133540509909,267.5975341220037,261.61317476799013,2,1.088769857014995,267.5975341220037,261.61317476799013,,,subj022,001,2022_Oct_24_1819,item,3.2.3,59.81877769573915,
grandfather,0,21,21,34,,,,,,,,,,,,,273.57994816001155,272.59677694999846,272.59677694999846,273.59681877100957,278.5808531449875,272.59677694999846,1,0.8833415989938658,278.5808531449875,272.59677694999846,,,subj022,001,2022_Oct_24_1819,item,3.2.3,59.81877769573915,
platypus,0,22,22,35,,,,,,,,,,,,,284.56368885099073,283.5797399310104,283.5797399310104,284.58097350999014,289.56422932300484,283.5797399310104,1,1.2849599340115674,289.56422932300484,283.5797399310104,,,subj022,001,2022_Oct_24_1819,item,3.2.3,59.81877769573915,
walrus,0,23,23,25,,,,,,,,,,,,,295.54696767398855,294.56349011699785,294.56349011699785,295.5642071279872,300.5467973019986,294.56349011699785,1,2.818395949987462,300.5467973019986,294.56349011699785,,,subj022,001,2022_Oct_24_1819,item,3.2.3,59.81877769573915,
mirror,0,24,24,10,,,,,,,,,,,,,306.53065626398893,305.5473921369994,305.5473921369994,306.5475403449964,311.53078561701113,305.5473921369994,2,1.5585382949793711,311.53078561701113,305.5473921369994,,,subj022,001,2022_Oct_24_1819,item,3.2.3,59.81877769573915,
snowball,0,25,25,14,,,,,,,,,,,,,317.5139761310129,316.53019021399086,316.53019021399086,317.53099379799096,322.5142491309962,316.53019021399086,2,0.7260345070098992,322.5142491309962,316.53019021399086,,,subj022,001,2022_Oct_24_1819,item,3.2.3,59.81877769573915,
cheerleader,0,26,26,32,,,,,,,,,,,,,328.4974862470117,327.51404894300504,327.51404894300504,328.5136161810078,333.49759745498886,327.51404894300504,1,0.9835921310004778,333.49759745498886,327.51404894300504,,,subj022,001,2022_Oct_24_1819,item,3.2.3,59.81877769573915,
ladybug,0,27,27,30,,,,,,,,,,,,,339.4807628240087,338.49690210900735,338.49690210900735,339.49695090198657,344.4802706670016,338.49690210900735,1,1.194039710011566,344.4802706670016,338.49690210900735,,,subj022,001,2022_Oct_24_1819,item,3.2.3,59.81877769573915,
microscope,0,28,28,6,,,,,,,,,,,,,350.46364898700267,349.48025905599934,349.48025905599934,350.4801053479896,355.46386931001325,349.48025905599934,2,1.5034303689899389,355.46386931001325,349.48025905599934,,,subj022,001,2022_Oct_24_1819,item,3.2.3,59.81877769573915,
hairstylist,0,29,29,37,,,,,,,,,,,,,361.44759352199617,360.4634383429948,360.4634383429948,361.4643839269993,366.44682386200293,360.4634383429948,1,2.318332613998791,366.44682386200293,360.4634383429948,,,subj022,001,2022_Oct_24_1819,item,3.2.3,59.81877769573915,
camera,0,30,30,3,,,,,,,,,,,,,372.4306632700027,371.44773598000756,371.44773598000756,372.446962735994,377.4309873059974,371.44773598000756,2,1.0671496840077452,377.4309873059974,371.44773598000756,,,subj022,001,2022_Oct_24_1819,item,3.2.3,59.81877769573915,
knight,0,31,31,38,,,,,,,,,,,,,383.4142030729854,382.4310283199884,382.4310283199884,383.4302989419957,388.41438300700975,382.4310283199884,1,1.3389252820052207,388.41438300700975,382.4310283199884,,,subj022,001,2022_Oct_24_1819,item,3.2.3,59.81877769573915,
crab,0,32,32,31,,,,,,,,,,,,,394.3976127700007,393.4135833919863,393.4135833919863,394.4144607690105,399.39768175099744,393.4135833919863,1,1.7125526419840753,399.39768175099744,393.4135833919863,,,subj022,001,2022_Oct_24_1819,item,3.2.3,59.81877769573915,
chipmunk,0,33,33,26,,,,,,,,,,,,,405.38108015200123,404.3979234560102,404.3979234560102,405.39780139698996,410.3811358110106,404.3979234560102,1,1.3251980740169529,410.3811358110106,404.3979234560102,,,subj022,001,2022_Oct_24_1819,item,3.2.3,59.81877769573915,
porcupine,0,34,34,22,,,,,,,,,,,,,416.4306915609923,415.38113039100426,415.38113039100426,416.44720674399287,421.36441601699335,426.3642329229915,1,0.8148041009844746,421.36441601699335,426.3642329229915,,,subj022,001,2022_Oct_24_1819,item,3.2.3,59.81877769573915,
cheesecake,0,35,35,7,,,,,,,,,,,,,427.4144292609999,426.43027544999495,426.43027544999495,427.4311571260041,432.41430076101096,None,2,0.7259888259868603,432.41430076101096,None,,,subj022,001,2022_Oct_24_1819,item,3.2.3,59.81877769573915,
scalpel,0,36,36,19,,,,,,,,,,,,,438.3970752269961,437.4137327260105,437.4137327260105,438.4140644650033,443.39778300200123,437.4137327260105,2,0.5095391840150114,443.39778300200123,437.4137327260105,,,subj022,001,2022_Oct_24_1819,item,3.2.3,59.81877769573915,
hummingbird,0,37,37,28,,,,,,,,,,,,,449.39718412898947,448.39691658801166,448.39691658801166,449.39718412898947,454.39732490701135,448.39691658801166,1,1.5889600749942474,454.39732490701135,448.39691658801166,,,subj022,001,2022_Oct_24_1819,item,3.2.3,59.81877769573915,
violinist,0,38,38,39,,,,,,,,,,,,,460.3965535229945,459.3970622640045,459.3970622640045,460.3965535229945,465.39668026100844,459.3970622640045,1,0.9655006239772774,465.39668026100844,459.3970622640045,,,subj022,001,2022_Oct_24_1819,item,3.2.3,59.81877769573915,
necklace,0,39,39,12,,,,,,,,,,,,,471.3804574260139,470.3967657329922,470.3967657329922,471.3967964249896,476.3800001470081,470.3967657329922,2,0.6132977780071087,476.3800001470081,470.3967657329922,,,subj022,001,2022_Oct_24_1819,item,3.2.3,59.81877769573915,
,,,,,,,,,,,,,,,,,,,,,,,,,,,481.3802850380016,None,,,,,,,
