Word,trials.thisRepN,trials.thisTrialN,trials.thisN,trials.thisIndex,text.started,text.stopped,key_resp.keys,key_resp.rt,key_resp.started,key_resp.stopped,text_2.started,text_2.stopped,key_resp_2.keys,key_resp_2.rt,key_resp_2.started,key_resp_2.stopped,text_3.started,text_3.stopped,text_4.started,text_4.stopped,text_5.started,text_5.stopped,key_resp_3.keys,key_resp_3.rt,key_resp_3.started,key_resp_3.stopped,text_6.started,text_6.stopped,participant,session,date,expName,psychopyVersion,frameRate,
,,,,,7.218525127000248,None,1,2.1816181439999127,7.218525127000248,None,,,,,,,,,,,,,,,,,,,subj016,001,2022_Oct_01_1057,item,3.2.3,60.30257783289597,
,,,,,,,,,,,9.41825369200069,None,5,19.326075033999587,9.41825369200069,None,,,,,,,,,,,,,subj016,001,2022_Oct_01_1057,item,3.2.3,60.30257783289597,
hummingbird,0,0,0,28,,,,,,,,,,,,,29.76899888600019,None,28.784888455000328,29.785796238999865,34.76911326100071,None,1,2.6631669300004432,34.76911326100071,None,,,subj016,001,2022_Oct_01_1057,item,3.2.3,60.30257783289597,
platypus,0,1,1,35,,,,,,,,,,,,,40.76918314000068,None,39.768271605000336,40.76918314000068,45.76934130800055,None,1,1.1838411999997334,45.76934130800055,None,,,subj016,001,2022_Oct_01_1057,item,3.2.3,60.30257783289597,
porcupine,0,2,2,22,,,,,,,,,,,,,51.76554323500022,None,50.76861305300008,51.78195534099996,56.75247694900008,None,1,0.9718091479999202,56.75247694900008,None,,,subj016,001,2022_Oct_01_1057,item,3.2.3,60.30257783289597,
baby,0,3,3,20,,,,,,,,,,,,,62.748720025000694,61.76468371700048,61.76468371700048,62.76512395900045,67.7480350400001,61.76468371700048,1,0.9681759530003546,67.7480350400001,61.76468371700048,,,subj016,001,2022_Oct_01_1057,item,3.2.3,60.30257783289597,
scalpel,0,4,4,19,,,,,,,,,,,,,73.73633690099996,72.74842099800026,72.74842099800026,73.76497134300007,78.73647605899987,72.74842099800026,2,0.762633285999982,78.73647605899987,72.74842099800026,,,subj016,001,2022_Oct_01_1057,item,3.2.3,60.30257783289597,
crab,0,5,5,31,,,,,,,,,,,,,84.73656128499988,83.74824166500002,83.74824166500002,84.75296502299989,89.73653615600051,83.74824166500002,1,0.9325877920000494,89.73653615600051,83.74824166500002,,,subj016,001,2022_Oct_01_1057,item,3.2.3,60.30257783289597,
waterfall,0,6,6,18,,,,,,,,,,,,,95.7316443790005,94.73595265899985,94.73595265899985,95.74806548800007,100.71990045800067,94.73595265899985,2,1.1613730999997642,100.71990045800067,94.73595265899985,,,subj016,001,2022_Oct_01_1057,item,3.2.3,60.30257783289597,
umbrella,0,7,7,5,,,,,,,,,,,,,106.71458657400035,105.73137577800026,105.73137577800026,106.73135274000015,111.71961029700014,105.73137577800026,2,1.8046476440003971,111.71961029700014,105.73137577800026,,,subj016,001,2022_Oct_01_1057,item,3.2.3,60.30257783289597,
grandfather,0,8,8,34,,,,,,,,,,,,,117.71461386200008,116.73143968800014,116.73143968800014,117.73135917800028,122.70268770700022,116.73143968800014,1,4.329582346999814,122.70268770700022,116.73143968800014,,,subj016,001,2022_Oct_01_1057,item,3.2.3,60.30257783289597,
treadmill,0,9,9,16,,,,,,,,,,,,,128.71431705600025,127.71408695300033,127.71408695300033,128.71431705600025,133.68593011600024,138.6864794359999,2,2.7323503079996954,133.68593011600024,138.6864794359999,,,subj016,001,2022_Oct_01_1057,item,3.2.3,60.30257783289597,
hair,0,10,10,8,,,,,,,,,,,,,139.71428089500023,138.72001684099996,138.72001684099996,139.73117903500042,144.70335155500015,149.70332161900023,2,4.695924942000602,144.70335155500015,149.70332161900023,,,subj016,001,2022_Oct_01_1057,item,3.2.3,60.30257783289597,
elephant,0,11,11,21,,,,,,,,,,,,,150.70334295700013,149.7195708449999,149.7195708449999,150.71984545900068,155.70303433200024,None,1,4.597103787000378,155.70303433200024,None,,,subj016,001,2022_Oct_01_1057,item,3.2.3,60.30257783289597,
fingerprint,0,12,12,11,,,,,,,,,,,,,161.69718844999989,160.70290439400014,160.70290439400014,161.70270163700025,166.68649534199994,160.70290439400014,2,1.4687499540004865,166.68649534199994,160.70290439400014,,,subj016,001,2022_Oct_01_1057,item,3.2.3,60.30257783289597,
knight,0,13,13,38,,,,,,,,,,,,,172.68611763100034,171.69718147999993,171.69718147999993,172.70328134400006,177.6862315570006,171.69718147999993,1,1.3050549690005937,177.6862315570006,171.69718147999993,,,subj016,001,2022_Oct_01_1057,item,3.2.3,60.30257783289597,
ketchup,0,14,14,2,,,,,,,,,,,,,183.6694915470007,193.6691031600003,182.6858820080006,183.69711542000005,188.68049106299986,182.6858820080006,2,1.8586481729998923,188.68049106299986,182.6858820080006,,,subj016,001,2022_Oct_01_1057,item,3.2.3,60.30257783289597,
cheesecake,0,15,15,7,,,,,,,,,,,,,194.66997846499999,None,193.69690466000065,194.7028588740004,199.66889670900036,193.69690466000065,2,1.9022445740001785,199.66889670900036,193.69690466000065,,,subj016,001,2022_Oct_01_1057,item,3.2.3,60.30257783289597,
keyboard,0,16,16,15,,,,,,,,,,,,,205.6534084370005,204.66951708099987,204.66951708099987,205.68014334300005,210.65343789899998,204.66951708099987,2,1.7038572050005314,210.65343789899998,204.66951708099987,,,subj016,001,2022_Oct_01_1057,item,3.2.3,60.30257783289597,
passport,0,17,17,4,,,,,,,,,,,,,216.63669324800048,215.66331340700071,215.66331340700071,216.66988822800067,221.63663350800016,215.66331340700071,2,1.4615174579994346,221.63663350800016,215.66331340700071,,,subj016,001,2022_Oct_01_1057,item,3.2.3,60.30257783289597,
bulldozer,0,18,18,17,,,,,,,,,,,,,227.6463089910003,226.635849925,226.635849925,227.6463089910003,232.63613095900018,237.63653277200046,2,0.7961236229994029,232.63613095900018,237.63653277200046,,,subj016,001,2022_Oct_01_1057,item,3.2.3,60.30257783289597,
axe,0,19,19,0,,,,,,,,,,,,,238.64637786300045,237.65330328600066,237.65330328600066,238.6534006360007,243.63676341500013,248.63597503500023,2,0.8215230010000596,243.63676341500013,248.63597503500023,,,subj016,001,2022_Oct_01_1057,item,3.2.3,60.30257783289597,
cheerleader,0,20,20,32,,,,,,,,,,,,,249.63602723400072,248.65358219800055,248.65358219800055,249.65274224299992,254.6359825469999,None,1,1.0521658810002918,254.6359825469999,None,,,subj016,001,2022_Oct_01_1057,item,3.2.3,60.30257783289597,
walrus,0,21,21,25,,,,,,,,,,,,,260.61931537200053,259.64602650300003,259.64602650300003,260.6620590170005,265.62016513900016,259.64602650300003,1,1.028114559999267,265.62016513900016,259.64602650300003,,,subj016,001,2022_Oct_01_1057,item,3.2.3,60.30257783289597,
stove,0,22,22,13,,,,,,,,,,,,,271.60267042800024,270.620241566,270.620241566,271.62029068300035,276.60319866900045,270.620241566,2,0.738066345000334,276.60319866900045,270.620241566,,,subj016,001,2022_Oct_01_1057,item,3.2.3,60.30257783289597,
donkey,0,23,23,23,,,,,,,,,,,,,282.586787231,281.6026299390005,281.6026299390005,282.6036344740005,287.5869101600001,281.6026299390005,1,4.826355766000233,287.5869101600001,281.6026299390005,,,subj016,001,2022_Oct_01_1057,item,3.2.3,60.30257783289597,
cabdriver,0,24,24,36,,,,,,,,,,,,,293.56958141799987,292.58662450200063,292.58662450200063,293.5869641320005,298.5789977880004,292.58662450200063,1,3.1282596549999653,298.5789977880004,292.58662450200063,,,subj016,001,2022_Oct_01_1057,item,3.2.3,60.30257783289597,
seahorse,0,25,25,33,,,,,,,,,,,,,304.5702993390005,303.5789113179999,303.5789113179999,304.5954422290006,309.57035943200026,303.5789113179999,1,1.2929091529995276,309.57035943200026,303.5789113179999,,,subj016,001,2022_Oct_01_1057,item,3.2.3,60.30257783289597,
airplane,0,26,26,9,,,,,,,,,,,,,315.5528253299999,314.57001578200016,314.57001578200016,315.56949867799995,320.5529349180006,314.57001578200016,2,4.490399819999766,320.5529349180006,314.57001578200016,,,subj016,001,2022_Oct_01_1057,item,3.2.3,60.30257783289597,
binoculars,0,27,27,1,,,,,,,,,,,,,326.5363228180004,325.55332471900056,325.55332471900056,326.56199557000036,331.53703902899997,325.55332471900056,2,3.3862143860005745,331.53703902899997,325.55332471900056,,,subj016,001,2022_Oct_01_1057,item,3.2.3,60.30257783289597,
camera,0,28,28,3,,,,,,,,,,,,,337.5202144920004,336.5370946210005,336.5370946210005,337.5370109610003,342.52037473200016,336.5370946210005,2,1.4358740170000601,342.52037473200016,336.5370946210005,,,subj016,001,2022_Oct_01_1057,item,3.2.3,60.30257783289597,
snowball,0,29,29,14,,,,,,,,,,,,,348.5107911590003,347.52836936400035,347.52836936400035,348.527239301,353.5037955450007,358.5113760820004,2,1.8584961120004664,353.5037955450007,358.5113760820004,,,subj016,001,2022_Oct_01_1057,item,3.2.3,60.30257783289597,
coyote,0,30,30,27,,,,,,,,,,,,,359.528033523,358.52813057000003,358.52813057000003,359.54498630299986,364.503325359,369.50358891500036,1,1.557820381000056,364.503325359,369.50358891500036,,,subj016,001,2022_Oct_01_1057,item,3.2.3,60.30257783289597,
microscope,0,31,31,6,,,,,,,,,,,,,370.52806286300074,369.54436718500074,369.54436718500074,370.54456152000057,375.5278650580003,None,2,0.9893206700007795,375.5278650580003,None,,,subj016,001,2022_Oct_01_1057,item,3.2.3,60.30257783289597,
ladybug,0,32,32,30,,,,,,,,,,,,,381.52023032299985,380.5359221920007,380.5359221920007,381.53668130700044,386.520204765,380.5359221920007,1,1.378103784999439,386.520204765,380.5359221920007,,,subj016,001,2022_Oct_01_1057,item,3.2.3,60.30257783289597,
leopard,0,33,33,24,,,,,,,,,,,,,392.5031186820006,402.5032595010007,391.52021131900074,392.5202605479999,397.51142578000054,391.52021131900074,1,2.7576721989998987,397.51142578000054,391.52021131900074,,,subj016,001,2022_Oct_01_1057,item,3.2.3,60.30257783289597,
chipmunk,0,34,34,26,,,,,,,,,,,,,403.5036582370003,None,402.5204483280004,403.520489732,408.50369809099993,402.5204483280004,1,2.2815574420001212,408.50369809099993,402.5204483280004,,,subj016,001,2022_Oct_01_1057,item,3.2.3,60.30257783289597,
violinist,0,35,35,39,,,,,,,,,,,,,414.5034518580005,413.51058258100056,413.51058258100056,414.526653164,419.5038842570002,413.51058258100056,1,0.7063866479993521,419.5038842570002,413.51058258100056,,,subj016,001,2022_Oct_01_1057,item,3.2.3,60.30257783289597,
hairstylist,0,36,36,37,,,,,,,,,,,,,425.50316785799987,424.5102074430006,424.5102074430006,425.520372899,430.50373891600066,424.5102074430006,1,3.3804297609995047,430.50373891600066,424.5102074430006,,,subj016,001,2022_Oct_01_1057,item,3.2.3,60.30257783289597,
necklace,0,37,37,12,,,,,,,,,,,,,436.4935729400004,435.5103925000003,435.5103925000003,436.50369405400033,441.4936725739999,435.5103925000003,2,1.5955898729998808,441.4936725739999,435.5103925000003,,,subj016,001,2022_Oct_01_1057,item,3.2.3,60.30257783289597,
mirror,0,38,38,10,,,,,,,,,,,,,447.4936154780007,446.4937419000007,446.4937419000007,447.4936154780007,452.4868105149999,446.4937419000007,2,1.2683267580005122,452.4868105149999,446.4937419000007,,,subj016,001,2022_Oct_01_1057,item,3.2.3,60.30257783289597,
swan,0,39,39,29,,,,,,,,,,,,,458.48717056700025,457.49347327099986,457.49347327099986,458.5102267460006,463.4705190280001,468.4705321730007,1,4.066711728999508,463.4705190280001,468.4705321730007,,,subj016,001,2022_Oct_01_1057,item,3.2.3,60.30257783289597,
,,,,,,,,,,,,,,,,,,,,,,,,,,,468.48726928700034,None,,,,,,,
