Word,trials.thisRepN,trials.thisTrialN,trials.thisN,trials.thisIndex,text.started,text.stopped,key_resp.keys,key_resp.rt,key_resp.started,key_resp.stopped,text_2.started,text_2.stopped,key_resp_2.keys,key_resp_2.rt,key_resp_2.started,key_resp_2.stopped,text_3.started,text_3.stopped,text_4.started,text_4.stopped,text_5.started,text_5.stopped,key_resp_3.keys,key_resp_3.rt,key_resp_3.started,key_resp_3.stopped,text_6.started,text_6.stopped,participant,session,date,expName,psychopyVersion,frameRate,
,,,,,10.45472045999486,None,1,11.92832417099271,10.45472045999486,None,,,,,,,,,,,,,,,,,,,subj018,001,2022_Sep_17_1607,item,3.2.3,61.050645093435136,
,,,,,,,,,,,22.40321660299378,None,5,19.91981224299525,22.40321660299378,None,,,,,,,,,,,,,subj018,001,2022_Sep_17_1607,item,3.2.3,61.050645093435136,
microscope,0,0,0,6,,,,,,,,,,,,,43.353912345002755,None,42.3694452070049,43.37087386699568,48.35408214999188,None,2,3.09597905499686,48.35408214999188,None,,,subj018,001,2022_Sep_17_1607,item,3.2.3,61.050645093435136,
chipmunk,0,1,1,26,,,,,,,,,,,,,54.353532963999896,64.35367524799949,53.35242360799748,54.353532963999896,59.404971651994856,53.35242360799748,None,,59.404971651994856,53.35242360799748,,,subj018,001,2022_Sep_17_1607,item,3.2.3,61.050645093435136,
baby,0,2,2,20,,,,,,,,,,,,,65.35374509000394,None,64.36977861099876,65.37056855999981,70.35364264299278,None,None,,70.35364264299278,None,,,subj018,001,2022_Sep_17_1607,item,3.2.3,61.050645093435136,
keyboard,0,3,3,15,,,,,,,,,,,,,76.33615391499188,75.3531652620004,75.3531652620004,76.35383572299907,81.336322698,75.3531652620004,None,,81.336322698,75.3531652620004,,,subj018,001,2022_Sep_17_1607,item,3.2.3,61.050645093435136,
stove,0,4,4,13,,,,,,,,,,,,,87.32036750699626,86.3370743849955,86.3370743849955,87.33642682299251,92.32031586999074,86.3370743849955,None,,92.32031586999074,86.3370743849955,,,subj018,001,2022_Sep_17_1607,item,3.2.3,61.050645093435136,
knight,0,5,5,38,,,,,,,,,,,,,98.30354010200244,97.31966174399713,97.31966174399713,98.31968998699449,103.30380235399934,97.31966174399713,None,,103.30380235399934,97.31966174399713,,,subj018,001,2022_Sep_17_1607,item,3.2.3,61.050645093435136,
fingerprint,0,6,6,11,,,,,,,,,,,,,109.28704055699927,108.3038729300024,108.3038729300024,109.30295770500379,114.2870978389983,108.3038729300024,None,,114.2870978389983,108.3038729300024,,,subj018,001,2022_Sep_17_1607,item,3.2.3,61.050645093435136,
mirror,0,7,7,10,,,,,,,,,,,,,120.26948731599259,119.28622842200275,119.28622842200275,120.28632444300456,125.27054471999872,119.28622842200275,None,,125.27054471999872,119.28622842200275,,,subj018,001,2022_Sep_17_1607,item,3.2.3,61.050645093435136,
umbrella,0,8,8,5,,,,,,,,,,,,,131.25372853699082,130.26951818699308,130.26951818699308,131.26976640299836,136.2537984429946,130.26951818699308,None,,136.2537984429946,130.26951818699308,,,subj018,001,2022_Sep_17_1607,item,3.2.3,61.050645093435136,
waterfall,0,9,9,18,,,,,,,,,,,,,142.236953678992,141.25296864499978,141.25296864499978,142.25287896499503,147.2371399699914,141.25296864499978,None,,147.2371399699914,141.25296864499978,,,subj018,001,2022_Sep_17_1607,item,3.2.3,61.050645093435136,
necklace,0,10,10,12,,,,,,,,,,,,,153.2204513129982,152.23663456799113,152.23663456799113,153.23635955099599,158.2205725870008,152.23663456799113,None,,158.2205725870008,152.23663456799113,,,subj018,001,2022_Sep_17_1607,item,3.2.3,61.050645093435136,
camera,0,11,11,3,,,,,,,,,,,,,164.20375821000198,163.21973989199614,163.21973989199614,164.21992414200213,169.20384208200267,163.21973989199614,None,,169.20384208200267,163.21973989199614,,,subj018,001,2022_Sep_17_1607,item,3.2.3,61.050645093435136,
grandfather,0,12,12,34,,,,,,,,,,,,,175.18709130999923,174.20395410699712,174.20395410699712,175.20394267799566,180.1872167399997,174.20395410699712,None,,180.1872167399997,174.20395410699712,,,subj018,001,2022_Sep_17_1607,item,3.2.3,61.050645093435136,
hair,0,13,13,8,,,,,,,,,,,,,186.17054770600225,196.17074007699557,185.18732745699526,186.1864765670034,191.2373385940009,185.18732745699526,None,,191.2373385940009,185.18732745699526,,,subj018,001,2022_Sep_17_1607,item,3.2.3,61.050645093435136,
cheesecake,0,14,14,7,,,,,,,,,,,,,197.22067430500465,None,196.23662755799887,197.23708110100415,202.22076625100453,196.23662755799887,None,,202.22076625100453,196.23662755799887,,,subj018,001,2022_Sep_17_1607,item,3.2.3,61.050645093435136,
ladybug,0,15,15,30,,,,,,,,,,,,,208.20405289699556,207.22002238300047,207.22002238300047,208.22028792799392,213.203965024004,207.22002238300047,None,,213.203965024004,207.22002238300047,,,subj018,001,2022_Sep_17_1607,item,3.2.3,61.050645093435136,
porcupine,0,16,16,22,,,,,,,,,,,,,219.18659249000484,218.20357210800285,218.20357210800285,219.2034118159936,224.18687753099948,218.20357210800285,None,,224.18687753099948,218.20357210800285,,,subj018,001,2022_Sep_17_1607,item,3.2.3,61.050645093435136,
hummingbird,0,17,17,28,,,,,,,,,,,,,230.16992234799545,240.17007174200262,229.1863767219911,230.18671693399665,235.1868140049919,229.1863767219911,None,,235.1868140049919,229.1863767219911,,,subj018,001,2022_Sep_17_1607,item,3.2.3,61.050645093435136,
bulldozer,0,18,18,17,,,,,,,,,,,,,241.1692827569932,None,240.18699273599486,241.20329430600395,246.1693785009993,240.18699273599486,None,,246.1693785009993,240.18699273599486,,,subj018,001,2022_Sep_17_1607,item,3.2.3,61.050645093435136,
leopard,0,19,19,24,,,,,,,,,,,,,252.15335599599348,251.17020299799333,251.17020299799333,252.17014241599827,257.1526581979997,251.17020299799333,None,,257.1526581979997,251.17020299799333,,,subj018,001,2022_Sep_17_1607,item,3.2.3,61.050645093435136,
ketchup,0,20,20,2,,,,,,,,,,,,,263.18661051700474,262.20276972399733,262.20276972399733,263.20315652899444,268.1859933579981,262.20276972399733,None,,268.1859933579981,262.20276972399733,,,subj018,001,2022_Sep_17_1607,item,3.2.3,61.050645093435136,
walrus,0,21,21,25,,,,,,,,,,,,,274.1699115639931,273.18609661399387,273.18609661399387,274.18630868599575,279.169535049994,273.18609661399387,None,,279.169535049994,273.18609661399387,,,subj018,001,2022_Sep_17_1607,item,3.2.3,61.050645093435136,
platypus,0,22,22,35,,,,,,,,,,,,,285.15266550399247,284.16932608699426,284.16932608699426,285.1694954859995,290.15271886899427,284.16932608699426,None,,290.15271886899427,284.16932608699426,,,subj018,001,2022_Sep_17_1607,item,3.2.3,61.050645093435136,
axe,0,23,23,0,,,,,,,,,,,,,296.13604691599903,295.1527882609953,295.1527882609953,296.1527947680006,301.1360591959965,295.1527882609953,None,,301.1360591959965,295.1527882609953,,,subj018,001,2022_Sep_17_1607,item,3.2.3,61.050645093435136,
coyote,0,24,24,27,,,,,,,,,,,,,307.11937398799637,306.13615570300317,306.13615570300317,307.1361792389944,312.1193981709948,306.13615570300317,None,,312.1193981709948,306.13615570300317,,,subj018,001,2022_Sep_17_1607,item,3.2.3,61.050645093435136,
cheerleader,0,25,25,32,,,,,,,,,,,,,318.1025760689954,317.11940291499195,317.11940291499195,318.1194498699915,323.1037878549978,317.11940291499195,None,,323.1037878549978,317.11940291499195,,,subj018,001,2022_Sep_17_1607,item,3.2.3,61.050645093435136,
cabdriver,0,26,26,36,,,,,,,,,,,,,329.08711441799824,328.10283043800155,328.10283043800155,329.1039838519937,334.08722832899366,328.10283043800155,None,,334.08722832899366,328.10283043800155,,,subj018,001,2022_Sep_17_1607,item,3.2.3,61.050645093435136,
treadmill,0,27,27,16,,,,,,,,,,,,,340.07006251599523,339.0864001669979,339.0864001669979,340.0870650019933,345.0702784169989,339.0864001669979,None,,345.0702784169989,339.0864001669979,,,subj018,001,2022_Sep_17_1607,item,3.2.3,61.050645093435136,
swan,0,28,28,29,,,,,,,,,,,,,351.05352370699984,350.0697070390015,350.0697070390015,351.07042412699957,356.0536514580017,350.0697070390015,None,,356.0536514580017,350.0697070390015,,,subj018,001,2022_Sep_17_1607,item,3.2.3,61.050645093435136,
elephant,0,29,29,21,,,,,,,,,,,,,362.0368672649929,361.05299133800145,361.05299133800145,362.0536286409915,367.0369520999957,361.05299133800145,None,,367.0369520999957,361.05299133800145,,,subj018,001,2022_Sep_17_1607,item,3.2.3,61.050645093435136,
scalpel,0,30,30,19,,,,,,,,,,,,,373.02013977599563,372.036321224994,372.036321224994,373.0368236350041,378.02021388900175,372.036321224994,None,,378.02021388900175,372.036321224994,,,subj018,001,2022_Sep_17_1607,item,3.2.3,61.050645093435136,
binoculars,0,31,31,1,,,,,,,,,,,,,384.00463978799235,383.0204120249982,383.0204120249982,384.02143796900054,389.004433116992,383.0204120249982,None,,389.004433116992,383.0204120249982,,,subj018,001,2022_Sep_17_1607,item,3.2.3,61.050645093435136,
hairstylist,0,32,32,37,,,,,,,,,,,,,395.0041862529906,394.0207225070044,394.0207225070044,395.0209318099951,400.00415954999335,394.0207225070044,None,,400.00415954999335,394.0207225070044,,,subj018,001,2022_Sep_17_1607,item,3.2.3,61.050645093435136,
crab,0,33,33,31,,,,,,,,,,,,,405.9874242369988,405.00381923599343,405.00381923599343,406.00429252299364,410.98751549300505,405.00381923599343,None,,410.98751549300505,405.00381923599343,,,subj018,001,2022_Sep_17_1607,item,3.2.3,61.050645093435136,
airplane,0,34,34,9,,,,,,,,,,,,,416.97078072799195,415.98787000800075,415.98787000800075,416.9876423120004,421.9707482560043,415.98787000800075,None,,421.9707482560043,415.98787000800075,,,subj018,001,2022_Sep_17_1607,item,3.2.3,61.050645093435136,
passport,0,35,35,4,,,,,,,,,,,,,427.953975936005,426.9707165580039,426.9707165580039,427.9701976630022,432.95389412999793,426.9707165580039,None,,432.95389412999793,426.9707165580039,,,subj018,001,2022_Sep_17_1607,item,3.2.3,61.050645093435136,
donkey,0,36,36,23,,,,,,,,,,,,,438.93719074600085,437.9533522059937,437.9533522059937,438.95353310200153,443.937067352992,437.9533522059937,None,,443.937067352992,437.9533522059937,,,subj018,001,2022_Sep_17_1607,item,3.2.3,61.050645093435136,
violinist,0,37,37,39,,,,,,,,,,,,,449.92035022500204,448.93666052399203,448.93666052399203,449.9368384900008,454.9201407619985,448.93666052399203,None,,454.9201407619985,448.93666052399203,,,subj018,001,2022_Sep_17_1607,item,3.2.3,61.050645093435136,
seahorse,0,38,38,33,,,,,,,,,,,,,460.9041962909978,459.92100958099763,459.92100958099763,460.9210280559928,465.9043187999923,459.92100958099763,None,,465.9043187999923,459.92100958099763,,,subj018,001,2022_Sep_17_1607,item,3.2.3,61.050645093435136,
snowball,0,39,39,14,,,,,,,,,,,,,471.887262491,470.90331785500166,470.90331785500166,471.9044734999916,476.88768951399834,470.90331785500166,None,,476.88768951399834,470.90331785500166,,,subj018,001,2022_Sep_17_1607,item,3.2.3,61.050645093435136,
,,,,,,,,,,,,,,,,,,,,,,,,,,,481.8877041329979,None,,,,,,,
