Word,trials.thisRepN,trials.thisTrialN,trials.thisN,trials.thisIndex,text.started,text.stopped,key_resp.keys,key_resp.rt,key_resp.started,key_resp.stopped,text_2.started,text_2.stopped,key_resp_2.keys,key_resp_2.rt,key_resp_2.started,key_resp_2.stopped,text_3.started,text_3.stopped,text_4.started,text_4.stopped,text_5.started,text_5.stopped,key_resp_3.keys,key_resp_3.rt,key_resp_3.started,key_resp_3.stopped,text_6.started,text_6.stopped,participant,session,date,expName,psychopyVersion,frameRate,
,,,,,12.427576199999748,None,1,15.275657092000984,12.427576199999748,None,,,,,,,,,,,,,,,,,,,subj002,001,2021_Nov_30_1710,item,3.2.3,60.125316792926014,
,,,,,,,,,,,27.732732466000016,None,5,32.25136729000042,27.732732466000016,None,,,,,,,,,,,,,subj002,001,2021_Nov_30_1710,item,3.2.3,60.125316792926014,
bulldozer,0,0,0,17,,,,,,,,,,,,,61.02589426299892,None,60.042868866999925,61.03292507199876,66.03303635999873,None,2,1.0330719579997094,66.03303635999873,None,,,subj002,001,2021_Nov_30_1710,item,3.2.3,60.125316792926014,
donkey,0,1,1,23,,,,,,,,,,,,,72.02597295600026,None,71.04249184000037,72.03304273399954,77.032407323999,None,1,1.0338330990016402,77.032407323999,None,,,subj002,001,2021_Nov_30_1710,item,3.2.3,60.125316792926014,
hummingbird,0,2,2,28,,,,,,,,,,,,,83.01650759499898,None,82.04254561400012,83.04964278499938,88.04179530100009,None,1,0.7004215480010316,88.04179530100009,None,,,subj002,001,2021_Nov_30_1710,item,3.2.3,60.125316792926014,
cheerleader,0,3,3,32,,,,,,,,,,,,,93.99967701999958,None,93.02582432099916,94.032638142,98.99907033399904,None,1,0.8600697769998078,98.99907033399904,None,,,subj002,001,2021_Nov_30_1710,item,3.2.3,60.125316792926014,
porcupine,0,4,4,22,,,,,,,,,,,,,104.99916804199893,104.06509432999883,104.06509432999883,105.06594807799956,109.98255696399974,114.98318711200045,1,2.509669237999333,109.98255696399974,114.98318711200045,,,subj002,001,2021_Nov_30_1710,item,3.2.3,60.125316792926014,
elephant,0,5,5,21,,,,,,,,,,,,,115.99177028399936,114.99969115299973,114.99969115299973,115.99968731700028,120.99180042999978,None,1,0.830405331998918,120.99180042999978,None,,,subj002,001,2021_Nov_30_1710,item,3.2.3,60.125316792926014,
swan,0,6,6,29,,,,,,,,,,,,,126.98301704299956,125.99167270999897,125.99167270999897,126.99986119700043,131.97508034199927,125.99167270999897,1,0.8011558070011233,131.97508034199927,125.99167270999897,,,subj002,001,2021_Nov_30_1710,item,3.2.3,60.125316792926014,
mirror,0,7,7,10,,,,,,,,,,,,,137.96597402899897,147.96575429199947,136.9918399899998,137.99918888200045,142.9825122580005,136.9918399899998,2,0.9617207840001356,142.9825122580005,136.9918399899998,,,subj002,001,2021_Nov_30_1710,item,3.2.3,60.125316792926014,
microscope,0,8,8,6,,,,,,,,,,,,,148.9658611699997,None,147.98274699899957,148.98338833999878,153.966684048999,147.98274699899957,2,1.2215901910003595,153.966684048999,147.98274699899957,,,subj002,001,2021_Nov_30_1710,item,3.2.3,60.125316792926014,
hair,0,9,9,8,,,,,,,,,,,,,159.94989752000038,169.9499396529991,158.96660668799996,159.96587486299904,164.95750045800014,158.96660668799996,2,2.2137289220008824,164.95750045800014,158.96660668799996,,,subj002,001,2021_Nov_30_1710,item,3.2.3,60.125316792926014,
necklace,0,10,10,12,,,,,,,,,,,,,170.95808371299972,None,169.96650670499912,170.96641866199934,175.95025504600017,169.96650670499912,2,1.2358465130000695,175.95025504600017,169.96650670499912,,,subj002,001,2021_Nov_30_1710,item,3.2.3,60.125316792926014,
binoculars,0,11,11,1,,,,,,,,,,,,,181.94974579299924,180.95755863699924,180.95755863699924,181.96656602700023,186.93310506600028,191.9409353279989,2,1.367114650000076,186.93310506600028,191.9409353279989,,,subj002,001,2021_Nov_30_1710,item,3.2.3,60.125316792926014,
violinist,0,12,12,39,,,,,,,,,,,,,192.9499140879998,191.95703363400025,191.95703363400025,192.9499140879998,197.95004340000014,None,1,1.0401565219999611,197.95004340000014,None,,,subj002,001,2021_Nov_30_1710,item,3.2.3,60.125316792926014,
seahorse,0,13,13,33,,,,,,,,,,,,,203.95746142799908,202.9575041979988,202.9575041979988,203.95746142799908,208.94937485799892,213.94980638299967,1,1.1687540790007915,208.94937485799892,213.94980638299967,,,subj002,001,2021_Nov_30_1710,item,3.2.3,60.125316792926014,
scalpel,0,14,14,19,,,,,,,,,,,,,214.9494953379999,213.97432243799994,213.97432243799994,214.99045578199912,219.9498931679991,None,2,1.2812243799999123,219.9498931679991,None,,,subj002,001,2021_Nov_30_1710,item,3.2.3,60.125316792926014,
airplane,0,15,15,9,,,,,,,,,,,,,225.93322651499875,224.94993115599937,224.94993115599937,225.949960902999,230.93288072399992,224.94993115599937,2,1.355339803998504,230.93288072399992,224.94993115599937,,,subj002,001,2021_Nov_30_1710,item,3.2.3,60.125316792926014,
coyote,0,16,16,27,,,,,,,,,,,,,236.9165513609987,246.91668127999947,235.93336347900004,236.93334751699877,241.92333934499948,235.93336347900004,1,1.3088727949998429,241.92333934499948,235.93336347900004,,,subj002,001,2021_Nov_30_1710,item,3.2.3,60.125316792926014,
ladybug,0,17,17,30,,,,,,,,,,,,,247.92366684899935,None,246.9331535709989,247.93976120799925,252.91680897199876,246.9331535709989,1,1.1012572179988638,252.91680897199876,246.9331535709989,,,subj002,001,2021_Nov_30_1710,item,3.2.3,60.125316792926014,
knight,0,18,18,38,,,,,,,,,,,,,258.899999244999,268.900187489,257.9237559869998,258.9332679910003,263.9064268410002,257.9237559869998,1,1.2717888570005016,263.9064268410002,257.9237559869998,,,subj002,001,2021_Nov_30_1710,item,3.2.3,60.125316792926014,
baby,0,19,19,20,,,,,,,,,,,,,269.8994495099996,None,268.9161672709997,269.91652102199987,274.9002329269988,268.9161672709997,1,0.9579766869992454,274.9002329269988,268.9161672709997,,,subj002,001,2021_Nov_30_1710,item,3.2.3,60.125316792926014,
grandfather,0,20,20,34,,,,,,,,,,,,,280.88936260099945,279.89998997600014,279.89998997600014,280.8991322900001,285.8828651450003,290.8836270190004,1,1.7133513690005202,285.8828651450003,290.8836270190004,,,subj002,001,2021_Nov_30_1710,item,3.2.3,60.125316792926014,
cabdriver,0,21,21,36,,,,,,,,,,,,,291.88993167899935,290.89992656100003,290.89992656100003,291.90007941600015,296.9001665229989,None,1,0.6879685200001404,296.9001665229989,None,,,subj002,001,2021_Nov_30_1710,item,3.2.3,60.125316792926014,
treadmill,0,22,22,16,,,,,,,,,,,,,302.883484856,301.9003416260002,301.9003416260002,302.90035576099945,307.8835696690003,301.9003416260002,2,1.104619740999624,307.8835696690003,301.9003416260002,,,subj002,001,2021_Nov_30_1710,item,3.2.3,60.125316792926014,
snowball,0,23,23,14,,,,,,,,,,,,,313.85543556799894,323.8501398649987,312.88359152999874,313.8895425999999,318.87286760700044,312.88359152999874,2,0.7533450110004196,318.87286760700044,312.88359152999874,,,subj002,001,2021_Nov_30_1710,item,3.2.3,60.125316792926014,
hairstylist,0,24,24,37,,,,,,,,,,,,,324.8669739100005,None,323.88348042600046,324.88371165199896,329.8662493289994,323.88348042600046,1,1.1920122810006433,329.8662493289994,323.88348042600046,,,subj002,001,2021_Nov_30_1710,item,3.2.3,60.125316792926014,
stove,0,25,25,13,,,,,,,,,,,,,335.87239577199944,334.87251374900006,334.87251374900006,335.8890785149997,340.8504054469995,345.8504379269998,2,0.6487228469995898,340.8504054469995,345.8504379269998,,,subj002,001,2021_Nov_30_1710,item,3.2.3,60.125316792926014,
keyboard,0,26,26,15,,,,,,,,,,,,,346.86688754900024,345.8836887559992,345.8836887559992,346.883667778,351.86684779799907,None,2,1.4203768799998215,351.86684779799907,None,,,subj002,001,2021_Nov_30_1710,item,3.2.3,60.125316792926014,
leopard,0,27,27,24,,,,,,,,,,,,,357.8502311209995,367.8495779139994,356.87202299599994,357.88378547200045,362.86713134300044,356.87202299599994,1,0.669984674999796,362.86713134300044,356.87202299599994,,,subj002,001,2021_Nov_30_1710,item,3.2.3,60.125316792926014,
waterfall,0,28,28,18,,,,,,,,,,,,,368.85037373900013,None,367.8663862159992,368.8671209919994,373.849629413,367.8663862159992,2,1.6325932540003123,373.849629413,367.8663862159992,,,subj002,001,2021_Nov_30_1710,item,3.2.3,60.125316792926014,
ketchup,0,29,29,2,,,,,,,,,,,,,379.8336977349991,389.83389651200014,378.85553133099893,379.8669190299988,384.83879928900024,378.85553133099893,2,0.6302898240010109,384.83879928900024,378.85553133099893,,,subj002,001,2021_Nov_30_1710,item,3.2.3,60.125316792926014,
axe,0,30,30,0,,,,,,,,,,,,,390.8330949079991,None,389.84988322699974,390.850239804,395.8336068919998,389.84988322699974,2,1.1205910589997075,395.8336068919998,389.84988322699974,,,subj002,001,2021_Nov_30_1710,item,3.2.3,60.125316792926014,
crab,0,31,31,31,,,,,,,,,,,,,401.81644816599874,411.8165753459998,400.83325222299936,401.8331268719994,406.8214708659998,400.83325222299936,1,0.551769535000858,406.8214708659998,400.83325222299936,,,subj002,001,2021_Nov_30_1710,item,3.2.3,60.125316792926014,
walrus,0,32,32,25,,,,,,,,,,,,,412.8165405340005,None,411.83294655200007,412.83293647199935,417.81705758799944,411.83294655200007,1,0.7990742329984641,417.81705758799944,411.83294655200007,,,subj002,001,2021_Nov_30_1710,item,3.2.3,60.125316792926014,
fingerprint,0,33,33,11,,,,,,,,,,,,,423.8003119799996,422.8163265160001,422.8163265160001,423.8171054359991,428.8046185919993,422.8163265160001,2,0.9915896449983848,428.8046185919993,422.8163265160001,,,subj002,001,2021_Nov_30_1710,item,3.2.3,60.125316792926014,
platypus,0,34,34,35,,,,,,,,,,,,,434.788168608,433.7995274069999,433.7995274069999,434.8004662149997,439.78783369099983,433.7995274069999,1,2.2293004599996493,439.78783369099983,433.7995274069999,,,subj002,001,2021_Nov_30_1710,item,3.2.3,60.125316792926014,
cheesecake,0,35,35,7,,,,,,,,,,,,,445.78383662299893,455.78789646599944,444.80394723300014,445.82090254799914,450.8003599780004,444.80394723300014,2,1.3137577159996,450.8003599780004,444.80394723300014,,,subj002,001,2021_Nov_30_1710,item,3.2.3,60.125316792926014,
passport,0,36,36,4,,,,,,,,,,,,,456.7870370309993,466.78714832900005,455.79946397799904,456.8003600329994,461.80043543600004,455.79946397799904,2,1.0207653180004854,461.80043543600004,455.79946397799904,,,subj002,001,2021_Nov_30_1710,item,3.2.3,60.125316792926014,
camera,0,37,37,3,,,,,,,,,,,,,467.7868549729992,None,466.80436541199924,467.80354931500005,472.7837599449995,466.80436541199924,2,1.0954596890005632,472.7837599449995,466.80436541199924,,,subj002,001,2021_Nov_30_1710,item,3.2.3,60.125316792926014,
umbrella,0,38,38,5,,,,,,,,,,,,,478.7671088449988,477.7831449619989,477.7831449619989,478.7877257380005,483.76711074599916,477.7831449619989,2,0.9251258410004084,483.76711074599916,477.7831449619989,,,subj002,001,2021_Nov_30_1710,item,3.2.3,60.125316792926014,
chipmunk,0,39,39,26,,,,,,,,,,,,,489.7538518090005,488.76717231899966,488.76717231899966,489.76717185300004,494.75400590999925,488.76717231899966,1,1.2582231239994144,494.75400590999925,488.76717231899966,,,subj002,001,2021_Nov_30_1710,item,3.2.3,60.125316792926014,
,,,,,,,,,,,,,,,,,,,,,,,,,,,499.7665432449994,None,,,,,,,
