Word,trials.thisRepN,trials.thisTrialN,trials.thisN,trials.thisIndex,text.started,text.stopped,key_resp.keys,key_resp.rt,key_resp.started,key_resp.stopped,text_2.started,text_2.stopped,key_resp_2.keys,key_resp_2.rt,key_resp_2.started,key_resp_2.stopped,text_3.started,text_3.stopped,text_4.started,text_4.stopped,text_5.started,text_5.stopped,key_resp_3.keys,key_resp_3.rt,key_resp_3.started,key_resp_3.stopped,text_6.started,text_6.stopped,participant,session,date,expName,psychopyVersion,frameRate,
,,,,,9.832302808001259,None,1,4.047750174000612,9.832302808001259,None,,,,,,,,,,,,,,,,,,,subj002,002,2021_Nov_30_1719,item,3.2.3,59.98164333824745,
,,,,,,,,,,,13.89678597800048,None,5,18.211452430999998,13.89678597800048,None,,,,,,,,,,,,,subj002,002,2021_Nov_30_1719,item,3.2.3,59.98164333824745,
porcupine,0,0,0,22,,,,,,,,,,,,,33.13082425600078,None,32.14763519900043,33.14804507500048,38.13002360200153,None,1,4.511205549999431,38.13002360200153,None,,,subj002,002,2021_Nov_30_1719,item,3.2.3,59.98164333824745,
walrus,0,1,1,25,,,,,,,,,,,,,44.12998608500129,43.1310570880014,43.1310570880014,44.12998608500129,49.131340851999994,43.1310570880014,1,1.9439357399987784,49.131340851999994,43.1310570880014,,,subj002,002,2021_Nov_30_1719,item,3.2.3,59.98164333824745,
waterfall,0,2,2,18,,,,,,,,,,,,,55.114649189001284,None,54.131485470999905,55.13146929499999,60.11454643900106,None,2,1.1416796500016062,60.11454643900106,None,,,subj002,002,2021_Nov_30_1719,item,3.2.3,59.98164333824745,
umbrella,0,3,3,5,,,,,,,,,,,,,66.11406872600128,65.11366282800009,65.11366282800009,66.11406872600128,71.113816821,65.11366282800009,2,0.9793900429995119,71.113816821,65.11366282800009,,,subj002,002,2021_Nov_30_1719,item,3.2.3,59.98164333824745,
necklace,0,4,4,12,,,,,,,,,,,,,77.0980307080008,76.11483209000107,76.11483209000107,77.16485664800166,82.09814276500038,76.11483209000107,2,1.202961820999917,82.09814276500038,76.11483209000107,,,subj002,002,2021_Nov_30_1719,item,3.2.3,59.98164333824745,
ketchup,0,5,5,2,,,,,,,,,,,,,88.081493650001,87.09731670200017,87.09731670200017,88.09743751900169,93.08166896900002,87.09731670200017,2,2.7895212969997374,93.08166896900002,87.09731670200017,,,subj002,002,2021_Nov_30_1719,item,3.2.3,59.98164333824745,
donkey,0,6,6,23,,,,,,,,,,,,,99.06485564700051,98.08057171700057,98.08057171700057,99.0807377000001,104.06494315100099,98.08057171700057,1,1.1772415180003009,104.06494315100099,98.08057171700057,,,subj002,002,2021_Nov_30_1719,item,3.2.3,59.98164333824745,
bulldozer,0,7,7,17,,,,,,,,,,,,,110.06418747000134,109.06403873900126,109.06403873900126,110.06418747000134,115.06428136100112,109.06403873900126,2,2.7469444859998475,115.06428136100112,109.06403873900126,,,subj002,002,2021_Nov_30_1719,item,3.2.3,59.98164333824745,
violinist,0,8,8,39,,,,,,,,,,,,,121.06479468100042,120.06460667600004,120.06460667600004,121.06479468100042,126.06411592800032,120.06460667600004,1,1.5849205590002384,126.06411592800032,120.06460667600004,,,subj002,002,2021_Nov_30_1719,item,3.2.3,59.98164333824745,
mirror,0,9,9,10,,,,,,,,,,,,,132.04873351100105,131.0653482430007,131.0653482430007,132.06493131000025,137.04783507000138,131.0653482430007,2,1.2352461110003787,137.04783507000138,131.0653482430007,,,subj002,002,2021_Nov_30_1719,item,3.2.3,59.98164333824745,
platypus,0,10,10,35,,,,,,,,,,,,,143.0310817790014,142.0480873810011,142.0480873810011,143.04829098900154,148.03118435500073,142.0480873810011,1,0.8880189189985686,148.03118435500073,142.0480873810011,,,subj002,002,2021_Nov_30_1719,item,3.2.3,59.98164333824745,
knight,0,11,11,38,,,,,,,,,,,,,154.01448766200156,153.03156900700014,153.03156900700014,154.03155068800152,159.01454910200118,153.03156900700014,1,0.9396851729998161,159.01454910200118,153.03156900700014,,,subj002,002,2021_Nov_30_1719,item,3.2.3,59.98164333824745,
axe,0,12,12,0,,,,,,,,,,,,,164.9978022640007,164.01485569500073,164.01485569500073,165.01485300400054,169.9978939090015,164.01485569500073,2,2.9903078410006856,169.9978939090015,164.01485569500073,,,subj002,002,2021_Nov_30_1719,item,3.2.3,59.98164333824745,
ladybug,0,13,13,30,,,,,,,,,,,,,175.98115024400067,174.99789018500087,174.99789018500087,175.99829784600115,180.98160250600085,174.99789018500087,1,0.7344991629997821,180.98160250600085,174.99789018500087,,,subj002,002,2021_Nov_30_1719,item,3.2.3,59.98164333824745,
keyboard,0,14,14,15,,,,,,,,,,,,,186.96424695300084,185.98063162100152,185.98063162100152,186.98128442900088,191.96459200900063,185.98063162100152,2,0.6205967349997081,191.96459200900063,185.98063162100152,,,subj002,002,2021_Nov_30_1719,item,3.2.3,59.98164333824745,
leopard,0,15,15,24,,,,,,,,,,,,,197.94780451400038,196.96383473400056,196.96383473400056,197.96385518700117,202.94782879700142,196.96383473400056,1,1.2093889030002174,202.94782879700142,196.96383473400056,,,subj002,002,2021_Nov_30_1719,item,3.2.3,59.98164333824745,
treadmill,0,16,16,16,,,,,,,,,,,,,208.9304131230001,207.9471749230015,207.9471749230015,208.94718528400153,213.93040480300078,207.9471749230015,2,1.0757941449992359,213.93040480300078,207.9471749230015,,,subj002,002,2021_Nov_30_1719,item,3.2.3,59.98164333824745,
coyote,0,17,17,27,,,,,,,,,,,,,219.91378035000162,218.93030609000016,218.93030609000016,219.93171724500098,224.91383282700008,218.93030609000016,1,1.728382909001084,224.91383282700008,218.93030609000016,,,subj002,002,2021_Nov_30_1719,item,3.2.3,59.98164333824745,
swan,0,18,18,29,,,,,,,,,,,,,230.8970710620015,229.91500779000125,229.91500779000125,230.93063494000126,235.89718396900025,229.91500779000125,1,1.082922415000212,235.89718396900025,229.91500779000125,,,subj002,002,2021_Nov_30_1719,item,3.2.3,59.98164333824745,
passport,0,19,19,4,,,,,,,,,,,,,241.88038874199992,240.89843547500095,240.89843547500095,241.91410227699998,246.88052008400155,240.89843547500095,2,0.9825889170006121,246.88052008400155,240.89843547500095,,,subj002,002,2021_Nov_30_1719,item,3.2.3,59.98164333824745,
cheerleader,0,20,20,32,,,,,,,,,,,,,252.86363024000093,251.88042100400162,251.88042100400162,252.88053839200074,257.86376854600167,251.88042100400162,1,1.0513694739984203,257.86376854600167,251.88042100400162,,,subj002,002,2021_Nov_30_1719,item,3.2.3,59.98164333824745,
stove,0,21,21,13,,,,,,,,,,,,,263.84863333200155,262.8648144710005,262.8648144710005,263.86505640700125,268.8482914520009,262.8648144710005,2,1.833813868001016,268.8482914520009,262.8648144710005,,,subj002,002,2021_Nov_30_1719,item,3.2.3,59.98164333824745,
crab,0,22,22,31,,,,,,,,,,,,,274.8313866130011,273.8481847990006,273.8481847990006,274.84810719300003,279.8314474460003,273.8481847990006,1,1.0997008440008358,279.8314474460003,273.8481847990006,,,subj002,002,2021_Nov_30_1719,item,3.2.3,59.98164333824745,
cabdriver,0,23,23,36,,,,,,,,,,,,,285.8146089540005,284.83108585100126,284.83108585100126,285.831516491,290.81473448900033,284.83108585100126,1,0.941374657999404,290.81473448900033,284.83108585100126,,,subj002,002,2021_Nov_30_1719,item,3.2.3,59.98164333824745,
chipmunk,0,24,24,26,,,,,,,,,,,,,296.79793336700095,295.8140550700009,295.8140550700009,296.81481506100135,301.7980099940014,295.8140550700009,1,1.563247455000237,301.7980099940014,295.8140550700009,,,subj002,002,2021_Nov_30_1719,item,3.2.3,59.98164333824745,
hummingbird,0,25,25,28,,,,,,,,,,,,,307.78125772400017,306.7982046490015,306.7982046490015,307.79805591400145,312.7813740490001,306.7982046490015,1,0.8758220270010497,312.7813740490001,306.7982046490015,,,subj002,002,2021_Nov_30_1719,item,3.2.3,59.98164333824745,
microscope,0,26,26,6,,,,,,,,,,,,,318.76570824900045,317.7818635850017,317.7818635850017,318.78255367600104,323.76575659600167,317.7818635850017,2,1.1493695640001533,323.76575659600167,317.7818635850017,,,subj002,002,2021_Nov_30_1719,item,3.2.3,59.98164333824745,
scalpel,0,27,27,19,,,,,,,,,,,,,329.74895983900024,328.7638119510011,328.7638119510011,329.7652725730004,334.7480993060017,328.7638119510011,2,1.9901298309996491,334.7480993060017,328.7638119510011,,,subj002,002,2021_Nov_30_1719,item,3.2.3,59.98164333824745,
cheesecake,0,28,28,7,,,,,,,,,,,,,340.7321597700011,339.748205418,339.748205418,340.7485018590014,345.7321645259999,339.748205418,2,1.4688747849995707,345.7321645259999,339.748205418,,,subj002,002,2021_Nov_30_1719,item,3.2.3,59.98164333824745,
snowball,0,29,29,14,,,,,,,,,,,,,351.7158024220007,350.7307774050005,350.7307774050005,351.7317530620003,356.7148533610016,350.7307774050005,2,0.7373393489997397,356.7148533610016,350.7307774050005,,,subj002,002,2021_Nov_30_1719,item,3.2.3,59.98164333824745,
hairstylist,0,30,30,37,,,,,,,,,,,,,362.698146009001,361.7157034860011,361.7157034860011,362.71495928400145,367.6981573990015,361.7157034860011,1,0.8800311249997321,367.6981573990015,361.7157034860011,,,subj002,002,2021_Nov_30_1719,item,3.2.3,59.98164333824745,
fingerprint,0,31,31,11,,,,,,,,,,,,,373.6814265010016,372.6979427189999,372.6979427189999,373.6982378620014,378.6815096830014,372.6979427189999,2,1.3897221169991099,378.6815096830014,372.6979427189999,,,subj002,002,2021_Nov_30_1719,item,3.2.3,59.98164333824745,
baby,0,32,32,20,,,,,,,,,,,,,384.66478256200025,383.6823730420001,383.6823730420001,384.6815664559999,389.6647727510008,383.6823730420001,1,0.806431993998558,389.6647727510008,383.6823730420001,,,subj002,002,2021_Nov_30_1719,item,3.2.3,59.98164333824745,
hair,0,33,33,8,,,,,,,,,,,,,395.6491635860002,394.6655819719999,394.6655819719999,395.6657558730003,400.64913629400144,394.6655819719999,2,1.4070755720003945,400.64913629400144,394.6655819719999,,,subj002,002,2021_Nov_30_1719,item,3.2.3,59.98164333824745,
elephant,0,34,34,21,,,,,,,,,,,,,406.63241268300044,405.6484230140013,405.6484230140013,406.6490407270012,411.63108589400144,405.6484230140013,1,1.1221120490008616,411.63108589400144,405.6484230140013,,,subj002,002,2021_Nov_30_1719,item,3.2.3,59.98164333824745,
grandfather,0,35,35,34,,,,,,,,,,,,,417.61481571400145,416.6309392160001,416.6309392160001,417.6316847520011,422.61573393300023,416.6309392160001,1,1.2864546839991817,422.61573393300023,416.6309392160001,,,subj002,002,2021_Nov_30_1719,item,3.2.3,59.98164333824745,
seahorse,0,36,36,33,,,,,,,,,,,,,428.598895137,427.61530088400104,427.61530088400104,428.61538621900036,433.59890548800104,427.61530088400104,1,1.7032737540012022,433.59890548800104,427.61530088400104,,,subj002,002,2021_Nov_30_1719,item,3.2.3,59.98164333824745,
airplane,0,37,37,9,,,,,,,,,,,,,439.58151844200074,438.5983524050007,438.5983524050007,439.5985753390014,444.581614222001,438.5983524050007,2,0.9605820519991539,444.581614222001,438.5983524050007,,,subj002,002,2021_Nov_30_1719,item,3.2.3,59.98164333824745,
binoculars,0,38,38,1,,,,,,,,,,,,,450.5778791140001,460.57792637700004,449.5944159970004,450.5946812880011,455.5947621860014,449.5944159970004,2,0.8323467959999107,455.5947621860014,449.5944159970004,,,subj002,002,2021_Nov_30_1719,item,3.2.3,59.98164333824745,
camera,0,39,39,3,,,,,,,,,,,,,461.59435995700005,None,460.59431622300144,461.59435995700005,466.57789031500033,471.57754796000154,2,0.5663516170006915,466.57789031500033,471.57754796000154,,,subj002,002,2021_Nov_30_1719,item,3.2.3,59.98164333824745,
,,,,,,,,,,,,,,,,,,,,,,,,,,,471.594409663001,None,,,,,,,
