Word,trials.thisRepN,trials.thisTrialN,trials.thisN,trials.thisIndex,text.started,text.stopped,key_resp.keys,key_resp.rt,key_resp.started,key_resp.stopped,text_2.started,text_2.stopped,key_resp_2.keys,key_resp_2.rt,key_resp_2.started,key_resp_2.stopped,text_3.started,text_3.stopped,text_4.started,text_4.stopped,text_5.started,text_5.stopped,key_resp_3.keys,key_resp_3.started,key_resp_3.stopped,text_6.started,text_6.stopped,participant,session,date,expName,psychopyVersion,frameRate,
,,,,,12.220258134000687,None,1,8.312906248999752,12.220258134000687,None,,,,,,,,,,,,,,,,,,subj002,002,2021_Nov_05_1803,item,3.2.3,59.76216844240573,
,,,,,,,,,,,20.553569998000057,None,5,29.8156063309998,20.553569998000057,None,,,,,,,,,,,,subj002,002,2021_Nov_05_1803,item,3.2.3,59.76216844240573,
hairstylist,0,0,0,37,,,,,,,,,,,,,51.38670002900017,None,50.40062644400041,51.403794360000575,56.38603790700017,None,None,56.38603790700017,None,,,subj002,002,2021_Nov_05_1803,item,3.2.3,59.76216844240573,
platypus,0,1,1,35,,,,,,,,,,,,,62.38606428200001,61.386829421000584,61.386829421000584,62.38606428200001,67.38641667700085,61.386829421000584,None,67.38641667700085,61.386829421000584,,,subj002,002,2021_Nov_05_1803,item,3.2.3,59.76216844240573,
walrus,0,2,2,25,,,,,,,,,,,,,73.38645846200052,72.38619018300051,72.38619018300051,73.38645846200052,78.38655201000074,72.38619018300051,None,78.38655201000074,72.38619018300051,,,subj002,002,2021_Nov_05_1803,item,3.2.3,59.76216844240573,
violinist,0,3,3,39,,,,,,,,,,,,,84.36973954700079,83.38684164200004,83.38684164200004,84.38655720000042,89.36959126700003,83.38684164200004,None,89.36959126700003,83.38684164200004,,,subj002,002,2021_Nov_05_1803,item,3.2.3,59.76216844240573,
porcupine,0,4,4,22,,,,,,,,,,,,,95.35399930700078,94.36922467600016,94.36922467600016,95.37050371000078,100.35401227000057,94.36922467600016,None,100.35401227000057,94.36922467600016,,,subj002,002,2021_Nov_05_1803,item,3.2.3,59.76216844240573,
snowball,0,5,5,14,,,,,,,,,,,,,106.3537563230002,105.35344963200077,105.35344963200077,106.3537563230002,111.35377278000033,105.35344963200077,None,111.35377278000033,105.35344963200077,,,subj002,002,2021_Nov_05_1803,item,3.2.3,59.76216844240573,
umbrella,0,6,6,5,,,,,,,,,,,,,117.35386308000034,116.35284994100039,116.35284994100039,117.35386308000034,122.33708061400012,127.33707394500016,None,122.33708061400012,127.33707394500016,,,subj002,002,2021_Nov_05_1803,item,3.2.3,59.76216844240573,
waterfall,0,7,7,18,,,,,,,,,,,,,128.33711857800063,127.35302362000039,127.35302362000039,128.35391347800032,133.33681044700006,None,None,133.33681044700006,None,,,subj002,002,2021_Nov_05_1803,item,3.2.3,59.76216844240573,
ladybug,0,8,8,30,,,,,,,,,,,,,139.32024767300027,138.33691812300003,138.33691812300003,139.33665341400047,144.31990140300059,138.33691812300003,None,144.31990140300059,138.33691812300003,,,subj002,002,2021_Nov_05_1803,item,3.2.3,59.76216844240573,
scalpel,0,9,9,19,,,,,,,,,,,,,150.31649345200003,160.3161440820004,149.3328536930003,150.33669605400064,155.31988108500082,149.3328536930003,None,155.31988108500082,149.3328536930003,,,subj002,002,2021_Nov_05_1803,item,3.2.3,59.76216844240573,
swan,0,10,10,29,,,,,,,,,,,,,161.33297925400075,None,160.33278285400047,161.33297925400075,166.316152288,171.31604808500015,None,166.316152288,171.31604808500015,,,subj002,002,2021_Nov_05_1803,item,3.2.3,59.76216844240573,
bulldozer,0,11,11,17,,,,,,,,,,,,,172.31613124600062,182.31552585999998,171.33209008000085,172.3326134300005,177.3318700310001,None,None,177.3318700310001,None,,,subj002,002,2021_Nov_05_1803,item,3.2.3,59.76216844240573,
microscope,0,12,12,6,,,,,,,,,,,,,183.3199287870002,None,182.33219255400036,183.3367617470003,188.31588175700017,193.31582198500018,None,188.31588175700017,193.31582198500018,,,subj002,002,2021_Nov_05_1803,item,3.2.3,59.76216844240573,
keyboard,0,13,13,15,,,,,,,,,,,,,194.3204870790005,193.3317175130005,193.3317175130005,194.33727680600077,199.3205185500001,None,None,199.3205185500001,None,,,subj002,002,2021_Nov_05_1803,item,3.2.3,59.76216844240573,
chipmunk,0,14,14,26,,,,,,,,,,,,,205.30337279000014,204.31958270500036,204.31958270500036,205.320600516,210.30456166400018,204.31958270500036,None,210.30456166400018,204.31958270500036,,,subj002,002,2021_Nov_05_1803,item,3.2.3,59.76216844240573,
stove,0,15,15,13,,,,,,,,,,,,,216.30389359400033,215.3154566180001,215.3154566180001,216.3200393420002,221.28660846399998,226.29880411000067,None,221.28660846399998,226.29880411000067,,,subj002,002,2021_Nov_05_1803,item,3.2.3,59.76216844240573,
knight,0,16,16,38,,,,,,,,,,,,,227.29888372200003,226.31505253100022,226.31505253100022,227.31511283300006,232.30338636100078,None,None,232.30338636100078,None,,,subj002,002,2021_Nov_05_1803,item,3.2.3,59.76216844240573,
hummingbird,0,17,17,28,,,,,,,,,,,,,238.2984687420003,237.3033326090008,237.3033326090008,238.30396500900042,243.28741546000037,237.3033326090008,None,243.28741546000037,237.3033326090008,,,subj002,002,2021_Nov_05_1803,item,3.2.3,59.76216844240573,
mirror,0,18,18,10,,,,,,,,,,,,,249.2875927820005,259.2873506040005,248.29848423800013,249.3148027950001,254.29803184699995,248.29848423800013,None,254.29803184699995,248.29848423800013,,,subj002,002,2021_Nov_05_1803,item,3.2.3,59.76216844240573,
seahorse,0,19,19,33,,,,,,,,,,,,,260.28709017300025,None,259.31494126600046,260.32093600400003,265.2872620980006,259.31494126600046,None,265.2872620980006,259.31494126600046,,,subj002,002,2021_Nov_05_1803,item,3.2.3,59.76216844240573,
binoculars,0,20,20,1,,,,,,,,,,,,,271.2704087990005,270.287515256,270.287515256,271.3364447440008,276.2707702050002,270.287515256,None,276.2707702050002,270.287515256,,,subj002,002,2021_Nov_05_1803,item,3.2.3,59.76216844240573,
cheerleader,0,21,21,32,,,,,,,,,,,,,282.25382630700005,292.25353374300084,281.2815330510002,282.2869502220001,287.2646902060005,281.2815330510002,None,287.2646902060005,281.2815330510002,,,subj002,002,2021_Nov_05_1803,item,3.2.3,59.76216844240573,
baby,0,22,22,20,,,,,,,,,,,,,293.25335650000034,303.2542987280003,292.27104934399995,293.2871185560007,298.2643311660004,292.27104934399995,None,298.2643311660004,292.27104934399995,,,subj002,002,2021_Nov_05_1803,item,3.2.3,59.76216844240573,
coyote,0,23,23,27,,,,,,,,,,,,,304.253565258,None,303.27039633799995,304.27077482500044,309.2536865310003,303.27039633799995,None,309.2536865310003,303.27039633799995,,,subj002,002,2021_Nov_05_1803,item,3.2.3,59.76216844240573,
grandfather,0,24,24,34,,,,,,,,,,,,,315.2368347110005,314.25376685300034,314.25376685300034,315.25410834800005,320.23777653100024,314.25376685300034,None,320.23777653100024,314.25376685300034,,,subj002,002,2021_Nov_05_1803,item,3.2.3,59.76216844240573,
cheesecake,0,25,25,7,,,,,,,,,,,,,326.23713525600033,325.24707279300037,325.24707279300037,326.25422990600055,331.2361584530008,325.24707279300037,None,331.2361584530008,325.24707279300037,,,subj002,002,2021_Nov_05_1803,item,3.2.3,59.76216844240573,
airplane,0,26,26,9,,,,,,,,,,,,,337.2205107660002,336.2371016980005,336.2371016980005,337.2372211970005,342.22061310700064,336.2371016980005,None,342.22061310700064,336.2371016980005,,,subj002,002,2021_Nov_05_1803,item,3.2.3,59.76216844240573,
necklace,0,27,27,12,,,,,,,,,,,,,348.20383108400074,347.22060176500054,347.22060176500054,348.2209533180003,353.2042134630001,347.22060176500054,None,353.2042134630001,347.22060176500054,,,subj002,002,2021_Nov_05_1803,item,3.2.3,59.76216844240573,
treadmill,0,28,28,16,,,,,,,,,,,,,359.1871912760007,358.20404785900064,358.20404785900064,359.20384910900066,364.18723169400073,358.20404785900064,None,364.18723169400073,358.20404785900064,,,subj002,002,2021_Nov_05_1803,item,3.2.3,59.76216844240573,
leopard,0,29,29,24,,,,,,,,,,,,,370.1802460450008,369.1874593190005,369.1874593190005,370.19665534900014,375.17058155700033,369.1874593190005,None,375.17058155700033,369.1874593190005,,,subj002,002,2021_Nov_05_1803,item,3.2.3,59.76216844240573,
passport,0,30,30,4,,,,,,,,,,,,,381.1708064100003,380.1799655730001,380.1799655730001,381.1708064100003,386.1538639550008,391.15430136600025,None,386.1538639550008,391.15430136600025,,,subj002,002,2021_Nov_05_1803,item,3.2.3,59.76216844240573,
fingerprint,0,31,31,11,,,,,,,,,,,,,392.1538359460001,391.1798244090005,391.1798244090005,392.1872158620008,397.15464771200004,None,None,397.15464771200004,None,,,subj002,002,2021_Nov_05_1803,item,3.2.3,59.76216844240573,
ketchup,0,32,32,2,,,,,,,,,,,,,403.14579969400074,402.15449359600007,402.15449359600007,403.1541027740004,408.1465615290008,402.15449359600007,None,408.1465615290008,402.15449359600007,,,subj002,002,2021_Nov_05_1803,item,3.2.3,59.76216844240573,
camera,0,33,33,3,,,,,,,,,,,,,414.1206052440002,424.1204273450003,413.14606486400044,414.1538821560007,419.14619487800064,413.14606486400044,None,419.14619487800064,413.14606486400044,,,subj002,002,2021_Nov_05_1803,item,3.2.3,59.76216844240573,
crab,0,34,34,31,,,,,,,,,,,,,425.1539564000004,None,424.1628499570006,425.17124851300014,430.15443643900016,424.1628499570006,None,430.15443643900016,424.1628499570006,,,subj002,002,2021_Nov_05_1803,item,3.2.3,59.76216844240573,
donkey,0,35,35,23,,,,,,,,,,,,,436.1621974870004,435.162508204,435.162508204,436.1710330400001,441.1378059640001,446.1378895930002,None,441.1378059640001,446.1378895930002,,,subj002,002,2021_Nov_05_1803,item,3.2.3,59.76216844240573,
axe,0,36,36,0,,,,,,,,,,,,,447.17076625900063,446.17908184299995,446.17908184299995,447.1878744730002,452.1544494630007,457.162379116,None,452.1544494630007,457.162379116,,,subj002,002,2021_Nov_05_1803,item,3.2.3,59.76216844240573,
hair,0,37,37,8,,,,,,,,,,,,,458.1712300480003,457.1789229750002,457.1789229750002,458.18799743900036,463.1544715380005,468.153896754,None,463.1544715380005,468.153896754,,,subj002,002,2021_Nov_05_1803,item,3.2.3,59.76216844240573,
elephant,0,38,38,21,,,,,,,,,,,,,469.1537371120003,479.1620666250001,468.1785026510006,469.1877066490006,474.16952478200074,None,None,474.16952478200074,None,,,subj002,002,2021_Nov_05_1803,item,3.2.3,59.76216844240573,
cabdriver,0,39,39,36,,,,,,,,,,,,,480.170825618,None,479.1786663470002,480.1879360990006,485.1788051470003,479.1786663470002,None,485.1788051470003,479.1786663470002,,,subj002,002,2021_Nov_05_1803,item,3.2.3,59.76216844240573,
,,,,,,,,,,,,,,,,,,,,,,,,,,490.17837930300084,None,,,,,,,
