Word,trials.thisRepN,trials.thisTrialN,trials.thisN,trials.thisIndex,text.started,text.stopped,key_resp.keys,key_resp.rt,key_resp.started,key_resp.stopped,text_2.started,text_2.stopped,key_resp_2.keys,key_resp_2.rt,key_resp_2.started,key_resp_2.stopped,text_3.started,text_3.stopped,text_4.started,text_4.stopped,text_5.started,text_5.stopped,key_resp_3.keys,key_resp_3.started,key_resp_3.stopped,key_resp_3.rt,text_6.started,text_6.stopped,participant,session,date,expName,psychopyVersion,frameRate,
,,,,,7.89920623000944,None,1,25.98120181899867,7.89920623000944,None,,,,,,,,,,,,,,,,,,,subj019,001,2022_Oct_24_1059,item,3.2.3,59.875272020738244,
,,,,,,,,,,,33.910631674021715,None,5,26.918765845010057,33.910631674021715,None,,,,,,,,,,,,,subj019,001,2022_Oct_24_1059,item,3.2.3,59.875272020738244,
waterfall,0,0,0,18,,,,,,,,,,,,,61.85032015101751,71.84968972901697,60.86649388400838,61.8670098130242,66.86041058599949,None,None,66.86041058599949,None,,,,subj019,001,2022_Oct_24_1059,item,3.2.3,59.875272020738244,
axe,0,1,1,0,,,,,,,,,,,,,72.84989430801943,None,71.86648528001388,72.86679877201095,77.85071704402799,None,2,77.85071704402799,None,1.5075900250230916,,,subj019,001,2022_Oct_24_1059,item,3.2.3,59.875272020738244,
umbrella,0,2,2,5,,,,,,,,,,,,,83.84985660400707,None,82.84986716302228,83.84985660400707,88.84324652701616,None,2,88.84324652701616,None,1.4791488159971777,,,subj019,001,2022_Oct_24_1059,item,3.2.3,59.875272020738244,
airplane,0,3,3,9,,,,,,,,,,,,,94.84330699100974,93.85957614899962,93.85957614899962,94.85025921100168,99.83338902701507,93.85957614899962,2,99.83338902701507,93.85957614899962,1.6158598969923332,,,subj019,001,2022_Oct_24_1059,item,3.2.3,59.875272020738244,
scalpel,0,4,4,19,,,,,,,,,,,,,105.8335010020237,104.84272055700421,104.84272055700421,105.85024339100346,110.82612403202802,104.84272055700421,2,110.82612403202802,104.84272055700421,2.080324858019594,,,subj019,001,2022_Oct_24_1059,item,3.2.3,59.875272020738244,
mirror,0,5,5,10,,,,,,,,,,,,,116.83305048101465,115.84215129702352,115.84215129702352,116.84992459902423,121.82618858502246,115.84215129702352,2,121.82618858502246,115.84215129702352,1.6721145839837845,,,subj019,001,2022_Oct_24_1059,item,3.2.3,59.875272020738244,
porcupine,0,6,6,22,,,,,,,,,,,,,127.81720892500016,126.83326458901865,126.83326458901865,127.83351671000128,132.81641932501225,126.83326458901865,1,132.81641932501225,126.83326458901865,0.9358264979964588,,,subj019,001,2022_Oct_24_1059,item,3.2.3,59.875272020738244,
stove,0,7,7,13,,,,,,,,,,,,,138.80044849202386,148.80030066301697,137.81671333301347,138.81698071901337,143.8090546860185,137.81671333301347,2,143.8090546860185,137.81671333301347,1.3053924779815134,,,subj019,001,2022_Oct_24_1059,item,3.2.3,59.875272020738244,
walrus,0,8,8,25,,,,,,,,,,,,,149.80912846600404,None,148.82597934501246,149.82597451802576,154.80033548502252,159.79972265000106,1,154.80033548502252,159.79972265000106,0.9770969089877326,,,subj019,001,2022_Oct_24_1059,item,3.2.3,59.875272020738244,
keyboard,0,9,9,15,,,,,,,,,,,,,160.8003312520159,170.7998553450161,159.81625051001902,160.8164540270227,165.80878286002553,None,2,165.80878286002553,None,1.6636647570121568,,,subj019,001,2022_Oct_24_1059,item,3.2.3,59.875272020738244,
passport,0,10,10,4,,,,,,,,,,,,,171.8089184250275,None,170.81709196500015,171.82571008702507,176.80890029401053,170.81709196500015,2,176.80890029401053,170.81709196500015,1.4875312270014547,,,subj019,001,2022_Oct_24_1059,item,3.2.3,59.875272020738244,
knight,0,11,11,38,,,,,,,,,,,,,182.80003925500205,181.8251717540261,181.8251717540261,182.84210024701315,187.80042999400757,181.8251717540261,1,187.80042999400757,181.8251717540261,1.8419819049886428,,,subj019,001,2022_Oct_24_1059,item,3.2.3,59.875272020738244,
ketchup,0,12,12,2,,,,,,,,,,,,,193.7832499880169,192.80861249900772,192.80861249900772,193.81654528301442,198.7833652140107,192.80861249900772,2,198.7833652140107,192.80861249900772,2.1980438040045556,,,subj019,001,2022_Oct_24_1059,item,3.2.3,59.875272020738244,
baby,0,13,13,20,,,,,,,,,,,,,204.76673632801976,203.78293626900995,203.78293626900995,204.7831203980022,209.77495143102715,203.78293626900995,1,209.77495143102715,203.78293626900995,2.286421783006517,,,subj019,001,2022_Oct_24_1059,item,3.2.3,59.875272020738244,
fingerprint,0,14,14,11,,,,,,,,,,,,,215.76733072299976,214.77506408002228,214.77506408002228,215.76733072299976,220.7582441230188,225.75055101700127,2,220.7582441230188,225.75055101700127,1.6850740640074946,,,subj019,001,2022_Oct_24_1059,item,3.2.3,59.875272020738244,
treadmill,0,15,15,16,,,,,,,,,,,,,226.75011373401503,225.76665807300014,225.76665807300014,226.7673585980083,231.75064396701055,None,2,231.75064396701055,None,2.9567873180203605,,,subj019,001,2022_Oct_24_1059,item,3.2.3,59.875272020738244,
elephant,0,16,16,21,,,,,,,,,,,,,237.73370363001595,247.73327374600922,236.75068346600165,237.75001306002378,242.74185122500057,236.75068346600165,1,242.74185122500057,236.75068346600165,2.572452782012988,,,subj019,001,2022_Oct_24_1059,item,3.2.3,59.875272020738244,
microscope,0,17,17,6,,,,,,,,,,,,,248.73407730800682,258.733455108013,247.75805782800307,248.77449971201713,253.74128495002515,247.75805782800307,2,253.74128495002515,247.75805782800307,0.9340179479913786,,,subj019,001,2022_Oct_24_1059,item,3.2.3,59.875272020738244,
cabdriver,0,18,18,36,,,,,,,,,,,,,259.74131187199964,None,258.75039965700125,259.7506491380045,264.7339167560276,269.7339489030128,1,264.7339167560276,269.7339489030128,1.7184816289809532,,,subj019,001,2022_Oct_24_1059,item,3.2.3,59.875272020738244,
hairstylist,0,19,19,37,,,,,,,,,,,,,270.7339414980088,269.7508077880193,269.7508077880193,270.75780803200905,275.7340494750242,None,1,275.7340494750242,None,1.4692137780075427,,,subj019,001,2022_Oct_24_1059,item,3.2.3,59.875272020738244,
cheerleader,0,20,20,32,,,,,,,,,,,,,281.7173455180018,291.71746277302736,280.7404240790056,281.75726987302187,286.7241608380282,280.7404240790056,1,286.7241608380282,280.7404240790056,1.5732523449987639,,,subj019,001,2022_Oct_24_1059,item,3.2.3,59.875272020738244,
coyote,0,21,21,27,,,,,,,,,,,,,292.71673814201495,None,291.734242585022,292.7343164970225,297.71693228700315,291.734242585022,1,297.71693228700315,291.734242585022,3.0714586219983175,,,subj019,001,2022_Oct_24_1059,item,3.2.3,59.875272020738244,
grandfather,0,22,22,34,,,,,,,,,,,,,303.7008208160114,302.7168280350161,302.7168280350161,303.71722556400346,308.7001244390267,302.7168280350161,1,308.7001244390267,302.7168280350161,1.015278787992429,,,subj019,001,2022_Oct_24_1059,item,3.2.3,59.875272020738244,
bulldozer,0,23,23,17,,,,,,,,,,,,,314.6839232420025,324.6835880660219,313.70716185701895,314.7169652470038,319.7005133840139,313.70716185701895,2,319.7005133840139,313.70716185701895,2.2228201539837755,,,subj019,001,2022_Oct_24_1059,item,3.2.3,59.875272020738244,
hair,0,24,24,8,,,,,,,,,,,,,325.68459077502484,None,324.70683142601047,325.71757284202613,330.69007013502414,324.70683142601047,2,330.69007013502414,324.70683142601047,1.3193248450115789,,,subj019,001,2022_Oct_24_1059,item,3.2.3,59.875272020738244,
donkey,0,25,25,23,,,,,,,,,,,,,336.6840780050261,335.69003334100125,335.69003334100125,336.70009888501954,341.68482962201233,335.69003334100125,1,341.68482962201233,335.69003334100125,2.784579057013616,,,subj019,001,2022_Oct_24_1059,item,3.2.3,59.875272020738244,
ladybug,0,26,26,30,,,,,,,,,,,,,347.6731610010029,346.6893567320076,346.6893567320076,347.6844853570219,352.68430403302773,346.6893567320076,1,352.68430403302773,346.6893567320076,1.7790870609751437,,,subj019,001,2022_Oct_24_1059,item,3.2.3,59.875272020738244,
violinist,0,27,27,39,,,,,,,,,,,,,358.6675968390191,357.6842525040265,357.6842525040265,358.6843763840152,363.6668747080257,357.6842525040265,1,363.6668747080257,357.6842525040265,2.8605271150008775,,,subj019,001,2022_Oct_24_1059,item,3.2.3,59.875272020738244,
leopard,0,28,28,24,,,,,,,,,,,,,369.67299638700206,368.6730649040255,368.6730649040255,369.6897457020241,374.66755609202664,379.67312551202485,1,374.66755609202664,379.67312551202485,3.026828925998416,,,subj019,001,2022_Oct_24_1059,item,3.2.3,59.875272020738244,
cheesecake,0,29,29,7,,,,,,,,,,,,,380.6842915020243,379.6895617400005,379.6895617400005,380.701089470007,385.68435706102173,None,2,385.68435706102173,None,2.043053556000814,,,subj019,001,2022_Oct_24_1059,item,3.2.3,59.875272020738244,
hummingbird,0,30,30,28,,,,,,,,,,,,,391.6673013980035,401.6678312050062,390.68377233401407,391.6842177590006,396.6727202120237,390.68377233401407,1,396.6727202120237,390.68377233401407,2.2845596639963333,,,subj019,001,2022_Oct_24_1059,item,3.2.3,59.875272020738244,
seahorse,0,31,31,33,,,,,,,,,,,,,402.67287426500116,None,401.6848003020277,402.6887721650128,407.66781164702843,412.6724635580031,1,407.66781164702843,412.6724635580031,0.9215816580108367,,,subj019,001,2022_Oct_24_1059,item,3.2.3,59.875272020738244,
swan,0,32,32,29,,,,,,,,,,,,,413.684510333027,412.6892844880058,412.6892844880058,413.684510333027,418.6844282360107,None,1,418.6844282360107,None,1.2848603570018895,,,subj019,001,2022_Oct_24_1059,item,3.2.3,59.875272020738244,
snowball,0,33,33,14,,,,,,,,,,,,,424.68872980901506,423.6889090950135,423.6889090950135,424.68872980901506,429.68458745101816,423.6889090950135,2,429.68458745101816,423.6889090950135,1.9438240170129575,,,subj019,001,2022_Oct_24_1059,item,3.2.3,59.875272020738244,
binoculars,0,34,34,1,,,,,,,,,,,,,435.68426791601814,434.688162046019,434.688162046019,435.68426791601814,440.6721145460033,445.67226790601853,2,440.6721145460033,445.67226790601853,2.060283924016403,,,subj019,001,2022_Oct_24_1059,item,3.2.3,59.875272020738244,
platypus,0,35,35,35,,,,,,,,,,,,,446.66752756002825,445.68848173800507,445.68848173800507,446.7012616090069,451.6683257810073,None,1,451.6683257810073,None,3.466103506012587,,,subj019,001,2022_Oct_24_1059,item,3.2.3,59.875272020738244,
necklace,0,36,36,12,,,,,,,,,,,,,457.6555565840099,467.6552273980051,456.6716496620211,457.6677776820143,462.6660360530077,456.6716496620211,2,462.6660360530077,456.6716496620211,1.8123646669846494,,,subj019,001,2022_Oct_24_1059,item,3.2.3,59.875272020738244,
camera,0,37,37,3,,,,,,,,,,,,,468.65110790301696,478.6512767439999,467.66708790900884,468.667976525001,473.66795948601793,467.66708790900884,2,473.66795948601793,467.66708790900884,1.2764737039979082,,,subj019,001,2022_Oct_24_1059,item,3.2.3,59.875272020738244,
chipmunk,0,38,38,26,,,,,,,,,,,,,479.66755858500255,None,478.66735275500105,479.66755858500255,484.65139384102076,489.65126187101123,1,484.65139384102076,489.65126187101123,3.1519406940205954,,,subj019,001,2022_Oct_24_1059,item,3.2.3,59.875272020738244,
crab,0,39,39,31,,,,,,,,,,,,,490.6510267300182,489.67091712201363,489.67091712201363,490.6877501880226,495.65075819802587,None,1,495.65075819802587,None,1.8324725279817358,,,subj019,001,2022_Oct_24_1059,item,3.2.3,59.875272020738244,
,,,,,,,,,,,,,,,,,,,,,,,,,,,500.65426129000844,None,,,,,,,
