Word,trials.thisRepN,trials.thisTrialN,trials.thisN,trials.thisIndex,text.started,text.stopped,key_resp.keys,key_resp.rt,key_resp.started,key_resp.stopped,text_2.started,text_2.stopped,key_resp_2.keys,key_resp_2.rt,key_resp_2.started,key_resp_2.stopped,text_3.started,text_3.stopped,text_4.started,text_4.stopped,text_5.started,text_5.stopped,key_resp_3.keys,key_resp_3.rt,key_resp_3.started,key_resp_3.stopped,text_6.started,text_6.stopped,participant,session,date,expName,psychopyVersion,frameRate,
,,,,,6.561291275998883,None,1,31.508814127999358,6.561291275998883,None,,,,,,,,,,,,,,,,,,,subj013,001,2022_Jul_10_1720,item,3.2.3,59.82544013371174,
,,,,,,,,,,,38.09498766899924,None,5,17.446102457999586,38.09498766899924,None,,,,,,,,,,,,,subj013,001,2022_Jul_10_1720,item,3.2.3,59.82544013371174,
hairstylist,0,0,0,37,,,,,,,,,,,,,56.56152170999849,None,55.57852532799916,56.57898784899953,61.57758845900025,None,1,0.7824199249989761,61.57758845900025,None,,,subj013,001,2022_Jul_10_1720,item,3.2.3,59.82544013371174,
cheerleader,0,1,1,32,,,,,,,,,,,,,67.56880620999982,None,66.56866549599908,67.58559730599882,72.56876190899857,None,1,1.2313228509992769,72.56876190899857,None,,,subj013,001,2022_Jul_10_1720,item,3.2.3,59.82544013371174,
passport,0,2,2,4,,,,,,,,,,,,,78.56178925199856,None,77.56099133899988,78.56178925199856,83.56883661699976,None,2,0.9172680450010375,83.56883661699976,None,,,subj013,001,2022_Jul_10_1720,item,3.2.3,59.82544013371174,
seahorse,0,3,3,33,,,,,,,,,,,,,89.54558427200027,None,88.56139341800008,89.56238823799868,94.54563910199977,None,1,1.5303103880014532,94.54563910199977,None,,,subj013,001,2022_Jul_10_1720,item,3.2.3,59.82544013371174,
binoculars,0,4,4,1,,,,,,,,,,,,,100.54558807899957,99.55159794300016,99.55159794300016,100.56147768499977,105.5457571829993,99.55159794300016,2,0.6073581219989137,105.5457571829993,99.55159794300016,,,subj013,001,2022_Jul_10_1720,item,3.2.3,59.82544013371174,
airplane,0,5,5,9,,,,,,,,,,,,,111.52901030199973,110.54495134699937,110.54495134699937,111.5450514109998,116.53504949299895,110.54495134699937,2,0.7140288079990569,116.53504949299895,110.54495134699937,,,subj013,001,2022_Jul_10_1720,item,3.2.3,59.82544013371174,
walrus,0,6,6,25,,,,,,,,,,,,,122.51234844399914,132.5278309339992,121.53504525399876,122.54562166100004,127.52850183699957,121.53504525399876,1,0.812579845000073,127.52850183699957,121.53504525399876,,,subj013,001,2022_Jul_10_1720,item,3.2.3,59.82544013371174,
stove,0,7,7,13,,,,,,,,,,,,,133.5288275089988,None,132.5457210349996,133.54577339800016,138.52903371699904,132.5457210349996,2,0.707064131000152,138.52903371699904,132.5457210349996,,,subj013,001,2022_Jul_10_1720,item,3.2.3,59.82544013371174,
keyboard,0,8,8,15,,,,,,,,,,,,,144.51792154800023,143.5288227759993,143.5288227759993,144.52906632799932,149.51802942499853,143.5288227759993,2,0.6450648660011211,149.51802942499853,143.5288227759993,,,subj013,001,2022_Jul_10_1720,item,3.2.3,59.82544013371174,
ladybug,0,9,9,30,,,,,,,,,,,,,155.5292523349999,154.5343928179991,154.5343928179991,155.5456524099991,160.51251700399916,165.51252675399883,1,1.065566707000471,160.51251700399916,165.51252675399883,,,subj013,001,2022_Jul_10_1720,item,3.2.3,59.82544013371174,
treadmill,0,10,10,16,,,,,,,,,,,,,166.5125731019998,165.5286791969993,165.5286791969993,166.52891676499894,171.51273208699968,None,2,0.5892804179984523,171.51273208699968,None,,,subj013,001,2022_Jul_10_1720,item,3.2.3,59.82544013371174,
coyote,0,11,11,27,,,,,,,,,,,,,177.5007899609991,176.5168288749992,176.5168288749992,177.51776000499922,182.49606946399945,187.4956474319988,1,1.0420333549991483,182.49606946399945,187.4956474319988,,,subj013,001,2022_Jul_10_1720,item,3.2.3,59.82544013371174,
waterfall,0,12,12,18,,,,,,,,,,,,,188.49525566299963,187.51206316099888,187.51206316099888,188.51247920199967,193.49569094199978,None,2,0.5703747219995421,193.49569094199978,None,,,subj013,001,2022_Jul_10_1720,item,3.2.3,59.82544013371174,
scalpel,0,13,13,19,,,,,,,,,,,,,199.47863880899968,198.49559113099895,198.49559113099895,199.49535793199902,204.47904933799873,198.49559113099895,2,1.2640263110006345,204.47904933799873,198.49559113099895,,,subj013,001,2022_Jul_10_1720,item,3.2.3,59.82544013371174,
grandfather,0,14,14,34,,,,,,,,,,,,,210.46693734399923,209.47858780999923,209.47858780999923,210.47914415499872,215.46613856699878,209.47858780999923,1,0.8589650409994647,215.46613856699878,209.47858780999923,,,subj013,001,2022_Jul_10_1720,item,3.2.3,59.82544013371174,
fingerprint,0,15,15,11,,,,,,,,,,,,,221.46195112199894,231.46179331599888,220.47909726899888,221.47927252799855,226.4667986129989,220.47909726899888,2,0.4621217000003526,226.4667986129989,220.47909726899888,,,subj013,001,2022_Jul_10_1720,item,3.2.3,59.82544013371174,
crab,0,16,16,31,,,,,,,,,,,,,232.46273062,242.46674957100004,231.47943096000017,232.47942505099854,237.4668587549986,231.47943096000017,1,0.9481074750001426,237.4668587549986,231.47943096000017,,,subj013,001,2022_Jul_10_1720,item,3.2.3,59.82544013371174,
umbrella,0,17,17,5,,,,,,,,,,,,,243.46623634199932,253.46650621699882,242.47859953099942,243.479178915999,248.4792379619994,242.47859953099942,2,0.9408417079994251,248.4792379619994,242.47859953099942,,,subj013,001,2022_Jul_10_1720,item,3.2.3,59.82544013371174,
bulldozer,0,18,18,17,,,,,,,,,,,,,254.4793994289994,None,253.48301372499918,254.4960034179985,259.4786341399995,253.48301372499918,2,0.8924450180002168,259.4786341399995,253.48301372499918,,,subj013,001,2022_Jul_10_1720,item,3.2.3,59.82544013371174,
axe,0,19,19,0,,,,,,,,,,,,,265.46175813399896,264.47956256499856,264.47956256499856,265.49588491400027,270.4627885859991,264.47956256499856,2,1.0493018889992527,270.4627885859991,264.47956256499856,,,subj013,001,2022_Jul_10_1720,item,3.2.3,59.82544013371174,
cheesecake,0,20,20,7,,,,,,,,,,,,,276.4460592129999,275.46222622999994,275.46222622999994,276.4628571510002,281.44611809699927,275.46222622999994,2,1.52800892400046,281.44611809699927,275.46222622999994,,,subj013,001,2022_Jul_10_1720,item,3.2.3,59.82544013371174,
leopard,0,21,21,24,,,,,,,,,,,,,287.42940314599946,286.4451492979988,286.4451492979988,287.4454227979986,292.4295355239992,286.4451492979988,1,0.5285923139999795,292.4295355239992,286.4451492979988,,,subj013,001,2022_Jul_10_1720,item,3.2.3,59.82544013371174,
necklace,0,22,22,12,,,,,,,,,,,,,298.412845036999,297.428768496,297.428768496,298.42959992599936,303.4128376539993,297.428768496,2,0.6902376690013625,303.4128376539993,297.428768496,,,subj013,001,2022_Jul_10_1720,item,3.2.3,59.82544013371174,
violinist,0,23,23,39,,,,,,,,,,,,,309.39605811099864,308.41286198599846,308.41286198599846,309.41213149299983,314.3954064979989,308.41286198599846,1,0.8407008410013077,314.3954064979989,308.41286198599846,,,subj013,001,2022_Jul_10_1720,item,3.2.3,59.82544013371174,
hair,0,24,24,8,,,,,,,,,,,,,320.3793983029991,319.39615855599914,319.39615855599914,320.395447633,325.3786788939997,319.39615855599914,2,0.6444459300000744,325.3786788939997,319.39615855599914,,,subj013,001,2022_Jul_10_1720,item,3.2.3,59.82544013371174,
camera,0,25,25,3,,,,,,,,,,,,,331.3627935409986,330.37876245199914,330.37876245199914,331.37877272100013,336.3628856849991,330.37876245199914,2,0.6031826149992412,336.3628856849991,330.37876245199914,,,subj013,001,2022_Jul_10_1720,item,3.2.3,59.82544013371174,
porcupine,0,26,26,22,,,,,,,,,,,,,342.34612228199876,341.36291257599987,341.36291257599987,342.36215005600025,347.3462155799989,341.36291257599987,1,1.2579047849994822,347.3462155799989,341.36291257599987,,,subj013,001,2022_Jul_10_1720,item,3.2.3,59.82544013371174,
hummingbird,0,27,27,28,,,,,,,,,,,,,353.3295383599998,363.32903704599994,352.3456094060002,353.3462621809995,358.34637491399917,352.3456094060002,1,0.39573791099974187,358.34637491399917,352.3456094060002,,,subj013,001,2022_Jul_10_1720,item,3.2.3,59.82544013371174,
platypus,0,28,28,35,,,,,,,,,,,,,364.32967439999993,None,363.34551816899875,364.3459517909996,369.32878033999987,363.34551816899875,1,1.125342035000358,369.32878033999987,363.34551816899875,,,subj013,001,2022_Jul_10_1720,item,3.2.3,59.82544013371174,
microscope,0,29,29,6,,,,,,,,,,,,,375.3129084199991,374.329117547999,374.329117547999,375.32901716299966,380.3122754269989,374.329117547999,2,0.5738272739999957,380.3122754269989,374.329117547999,,,subj013,001,2022_Jul_10_1720,item,3.2.3,59.82544013371174,
knight,0,30,30,38,,,,,,,,,,,,,386.2954739939996,385.3127846689986,385.3127846689986,386.31237686500026,391.2956265369994,385.3127846689986,1,1.4785045319986239,391.2956265369994,385.3127846689986,,,subj013,001,2022_Jul_10_1720,item,3.2.3,59.82544013371174,
swan,0,31,31,29,,,,,,,,,,,,,397.2796849189999,396.29603235600007,396.29603235600007,397.2961084409999,402.27892125299877,396.29603235600007,1,0.477186553998763,402.27892125299877,396.29603235600007,,,subj013,001,2022_Jul_10_1720,item,3.2.3,59.82544013371174,
donkey,0,32,32,23,,,,,,,,,,,,,408.2622624199994,407.27902798499963,407.27902798499963,408.2790677949997,413.2631654179986,407.27902798499963,1,0.4229145650006103,413.2631654179986,407.27902798499963,,,subj013,001,2022_Jul_10_1720,item,3.2.3,59.82544013371174,
baby,0,33,33,20,,,,,,,,,,,,,419.24556185099937,418.26278900099896,418.26278900099896,419.26259294400006,424.2456741349997,418.26278900099896,1,0.5203830489990651,424.2456741349997,418.26278900099896,,,subj013,001,2022_Jul_10_1720,item,3.2.3,59.82544013371174,
ketchup,0,34,34,2,,,,,,,,,,,,,430.2289695449999,429.24576223799886,429.24576223799886,430.245980280999,435.22899274299925,429.24576223799886,2,0.9699726750004629,435.22899274299925,429.24576223799886,,,subj013,001,2022_Jul_10_1720,item,3.2.3,59.82544013371174,
elephant,0,35,35,21,,,,,,,,,,,,,441.22911346099863,440.22880739299944,440.22880739299944,441.22911346099863,446.23019812599887,440.22880739299944,1,0.6619353919995774,446.23019812599887,440.22880739299944,,,subj013,001,2022_Jul_10_1720,item,3.2.3,59.82544013371174,
mirror,0,36,36,10,,,,,,,,,,,,,452.2123269169988,451.22959848699975,451.22959848699975,452.2291929799994,457.21285445600006,451.22959848699975,2,0.32325831600064703,457.21285445600006,451.22959848699975,,,subj013,001,2022_Jul_10_1720,item,3.2.3,59.82544013371174,
chipmunk,0,37,37,26,,,,,,,,,,,,,463.19582599099886,462.21196461899854,462.21196461899854,463.2137278549999,468.19581541200023,462.21196461899854,1,0.6511505389989907,468.19581541200023,462.21196461899854,,,subj013,001,2022_Jul_10_1720,item,3.2.3,59.82544013371174,
snowball,0,38,38,14,,,,,,,,,,,,,474.17916674499975,473.19609630099876,473.19609630099876,474.1962761319992,479.1792419789999,473.19609630099876,2,0.6948466949997965,479.1792419789999,473.19609630099876,,,subj013,001,2022_Jul_10_1720,item,3.2.3,59.82544013371174,
cabdriver,0,39,39,36,,,,,,,,,,,,,485.1796608650002,484.17852038599995,484.17852038599995,485.1796608650002,490.17899856799886,484.17852038599995,1,0.2689340300003096,490.17899856799886,484.17852038599995,,,subj013,001,2022_Jul_10_1720,item,3.2.3,59.82544013371174,
,,,,,,,,,,,,,,,,,,,,,,,,,,,495.1798202559985,None,,,,,,,
