Word,trials.thisRepN,trials.thisTrialN,trials.thisN,trials.thisIndex,text.started,text.stopped,key_resp.keys,key_resp.rt,key_resp.started,key_resp.stopped,text_2.started,text_2.stopped,key_resp_2.keys,key_resp_2.rt,key_resp_2.started,key_resp_2.stopped,text_3.started,text_3.stopped,text_4.started,text_4.stopped,text_5.started,text_5.stopped,key_resp_3.keys,key_resp_3.started,key_resp_3.stopped,text_6.started,text_6.stopped,participant,session,date,expName,psychopyVersion,frameRate,
,,,,,8.621222779009258,None,1,4.423856348003028,8.621222779009258,None,,,,,,,,,,,,,,,,,,subj017,001,2022_Sep_19_1655,item,3.2.3,59.94633340751347,
,,,,,,,,,,,13.07460495099076,None,5,38.98066796900821,13.07460495099076,None,,,,,,,,,,,,subj017,001,2022_Sep_19_1655,item,3.2.3,59.94633340751347,
treadmill,0,0,0,16,,,,,,,,,,,,,53.07527732200106,None,52.08809921698412,53.092231351009104,58.07524861898855,None,None,58.07524861898855,None,,,subj017,001,2022_Sep_19_1655,item,3.2.3,59.94633340751347,
hummingbird,0,1,1,28,,,,,,,,,,,,,64.07524577199365,None,63.075372207997134,64.07524577199365,69.07160990699776,74.07168592998642,None,69.07160990699776,74.07168592998642,,,subj017,001,2022_Sep_19_1655,item,3.2.3,59.94633340751347,
microscope,0,2,2,6,,,,,,,,,,,,,75.08799932998954,None,74.0875995910028,75.08799932998954,80.08803072600858,None,None,80.08803072600858,None,,,subj017,001,2022_Sep_19_1655,item,3.2.3,59.94633340751347,
elephant,0,3,3,21,,,,,,,,,,,,,86.07130247898749,96.07139187600114,85.08803291400545,86.0881114419899,91.08810377700138,None,None,91.08810377700138,None,,,subj017,001,2022_Sep_19_1655,item,3.2.3,59.94633340751347,
coyote,0,4,4,27,,,,,,,,,,,,,97.07137498099473,None,96.08756704098778,97.0877068710106,102.07584801100893,None,None,102.07584801100893,None,,,subj017,001,2022_Sep_19_1655,item,3.2.3,59.94633340751347,
hair,0,5,5,8,,,,,,,,,,,,,108.05909483699361,None,107.0749514309864,108.07600028399611,113.05922311299946,None,None,113.05922311299946,None,,,subj017,001,2022_Sep_19_1655,item,3.2.3,59.94633340751347,
passport,0,6,6,4,,,,,,,,,,,,,119.04213690699544,118.05926903299405,118.05926903299405,119.05932736600516,124.04223431900027,118.05926903299405,None,124.04223431900027,118.05926903299405,,,subj017,001,2022_Sep_19_1655,item,3.2.3,59.94633340751347,
donkey,0,7,7,23,,,,,,,,,,,,,130.04228622399387,129.05371190200094,129.05371190200094,130.05946616100846,135.04223794100108,129.05371190200094,None,135.04223794100108,129.05371190200094,,,subj017,001,2022_Sep_19_1655,item,3.2.3,59.94633340751347,
stove,0,8,8,13,,,,,,,,,,,,,141.03746001800755,140.05369921401143,140.05369921401143,141.05372239800636,146.03720815799898,140.05369921401143,None,146.03720815799898,140.05369921401143,,,subj017,001,2022_Sep_19_1655,item,3.2.3,59.94633340751347,
platypus,0,9,9,35,,,,,,,,,,,,,152.02048118799576,162.0263422630087,151.03720787298516,152.03691688599065,157.03722879401175,151.03720787298516,None,157.03722879401175,151.03720787298516,,,subj017,001,2022_Sep_19_1655,item,3.2.3,59.94633340751347,
binoculars,0,10,10,1,,,,,,,,,,,,,163.02627622301225,None,162.04264435599907,163.0427431220014,168.02633945498383,162.04264435599907,None,168.02633945498383,162.04264435599907,,,subj017,001,2022_Sep_19_1655,item,3.2.3,59.94633340751347,
airplane,0,11,11,9,,,,,,,,,,,,,174.02662918300484,173.03675292700063,173.03675292700063,174.04288328200346,179.02011042600498,173.03675292700063,None,179.02011042600498,173.03675292700063,,,subj017,001,2022_Sep_19_1655,item,3.2.3,59.94633340751347,
porcupine,0,12,12,22,,,,,,,,,,,,,185.00946262999787,184.02547575900098,184.02547575900098,185.02626257500378,190.0091349199938,184.02547575900098,None,190.0091349199938,184.02547575900098,,,subj017,001,2022_Sep_19_1655,item,3.2.3,59.94633340751347,
umbrella,0,13,13,5,,,,,,,,,,,,,195.99246123700868,205.992161725997,195.00935095798923,196.0198617010028,201.0033530429937,195.00935095798923,None,201.0033530429937,195.00935095798923,,,subj017,001,2022_Sep_19_1655,item,3.2.3,59.94633340751347,
hairstylist,0,14,14,37,,,,,,,,,,,,,206.99290180500248,None,206.00979283099878,207.00897792499745,212.0029184029845,206.00979283099878,None,212.0029184029845,206.00979283099878,,,subj017,001,2022_Sep_19_1655,item,3.2.3,59.94633340751347,
leopard,0,15,15,24,,,,,,,,,,,,,218.00313827898935,217.00338695000391,217.00338695000391,218.00313827898935,222.99310264998348,227.99275588200544,None,222.99310264998348,227.99275588200544,,,subj017,001,2022_Sep_19_1655,item,3.2.3,59.94633340751347,
seahorse,0,16,16,33,,,,,,,,,,,,,228.99283704999834,228.00964396900963,228.00964396900963,229.00962063198676,233.99290580599336,None,None,233.99290580599336,None,,,subj017,001,2022_Sep_19_1655,item,3.2.3,59.94633340751347,
chipmunk,0,17,17,26,,,,,,,,,,,,,239.9860186839942,239.00283949400182,239.00283949400182,240.0028268909955,244.9759445390082,239.00283949400182,None,244.9759445390082,239.00283949400182,,,subj017,001,2022_Sep_19_1655,item,3.2.3,59.94633340751347,
cheesecake,0,18,18,7,,,,,,,,,,,,,250.97612002698588,249.9860999409866,249.9860999409866,250.97612002698588,255.95888828398893,260.9596487270028,None,255.95888828398893,260.9596487270028,,,subj017,001,2022_Sep_19_1655,item,3.2.3,59.94633340751347,
scalpel,0,19,19,19,,,,,,,,,,,,,261.95970830798615,271.9590494729928,260.97650887598866,261.9854510620062,266.9686512580083,None,None,266.9686512580083,None,,,subj017,001,2022_Sep_19_1655,item,3.2.3,59.94633340751347,
ladybug,0,20,20,30,,,,,,,,,,,,,272.9598764049879,None,271.9762499649951,272.9766826799896,277.95912714200676,271.9762499649951,None,277.95912714200676,271.9762499649951,,,subj017,001,2022_Sep_19_1655,item,3.2.3,59.94633340751347,
baby,0,21,21,20,,,,,,,,,,,,,283.942337504006,282.95913033699617,282.95913033699617,283.95959796899115,288.9431683619914,282.95913033699617,None,288.9431683619914,282.95913033699617,,,subj017,001,2022_Sep_19_1655,item,3.2.3,59.94633340751347,
snowball,0,22,22,14,,,,,,,,,,,,,294.92628443200374,293.95183916098904,293.95183916098904,294.96859905400197,299.92667986499146,293.95183916098904,None,299.92667986499146,293.95183916098904,,,subj017,001,2022_Sep_19_1655,item,3.2.3,59.94633340751347,
crab,0,23,23,31,,,,,,,,,,,,,305.9099051289959,315.90994730300736,304.9259184070106,305.926229056,310.9182753000059,304.9259184070106,None,310.9182753000059,304.9259184070106,,,subj017,001,2022_Sep_19_1655,item,3.2.3,59.94633340751347,
waterfall,0,24,24,18,,,,,,,,,,,,,316.9096339599928,None,315.9259269940085,316.9264156839927,321.9103527170082,315.9259269940085,None,321.9103527170082,315.9259269940085,,,subj017,001,2022_Sep_19_1655,item,3.2.3,59.94633340751347,
swan,0,25,25,29,,,,,,,,,,,,,327.9017168059945,337.9015863399836,326.9184481469856,327.9097586479911,332.90989209798863,326.9184481469856,None,332.90989209798863,326.9184481469856,,,subj017,001,2022_Sep_19_1655,item,3.2.3,59.94633340751347,
camera,0,26,26,3,,,,,,,,,,,,,338.8926326679939,348.89337119000265,337.91795382899,338.9267370699963,343.9092624440091,337.91795382899,None,343.9092624440091,337.91795382899,,,subj017,001,2022_Sep_19_1655,item,3.2.3,59.94633340751347,
mirror,0,27,27,10,,,,,,,,,,,,,349.90136863000225,None,348.9100591559836,349.90970032900805,354.8933690050035,359.90150318600354,None,354.8933690050035,359.90150318600354,,,subj017,001,2022_Sep_19_1655,item,3.2.3,59.94633340751347,
cheerleader,0,28,28,32,,,,,,,,,,,,,360.91780522599583,359.91760670699296,359.91760670699296,360.92664336398593,365.901020321995,370.90993698799866,None,365.901020321995,370.90993698799866,,,subj017,001,2022_Sep_19_1655,item,3.2.3,59.94633340751347,
axe,0,29,29,0,,,,,,,,,,,,,371.9099825769954,370.9341493390093,370.9341493390093,371.9929613980057,376.9100500229979,None,None,376.9100500229979,None,,,subj017,001,2022_Sep_19_1655,item,3.2.3,59.94633340751347,
keyboard,0,30,30,15,,,,,,,,,,,,,382.910099086992,392.909838527994,381.91715769001166,382.9265431560052,387.91751186098554,381.91715769001166,None,387.91751186098554,381.91715769001166,,,subj017,001,2022_Sep_19_1655,item,3.2.3,59.94633340751347,
fingerprint,0,31,31,11,,,,,,,,,,,,,393.9096216330072,None,392.926433288987,393.92664153000806,398.9099113669945,392.926433288987,None,398.9099113669945,392.926433288987,,,subj017,001,2022_Sep_19_1655,item,3.2.3,59.94633340751347,
cabdriver,0,32,32,36,,,,,,,,,,,,,404.9100232440105,403.90981241999543,403.90981241999543,404.9100232440105,409.89330118798534,414.8934048860101,None,409.89330118798534,414.8934048860101,,,subj017,001,2022_Sep_19_1655,item,3.2.3,59.94633340751347,
grandfather,0,33,33,34,,,,,,,,,,,,,415.89259851298993,414.91650841999217,414.91650841999217,415.9261564259941,420.8934976529854,None,None,420.8934976529854,None,,,subj017,001,2022_Sep_19_1655,item,3.2.3,59.94633340751347,
bulldozer,0,34,34,17,,,,,,,,,,,,,426.89359205498477,425.89279130200157,425.89279130200157,426.89359205498477,431.8935939790099,425.89279130200157,None,431.8935939790099,425.89279130200157,,,subj017,001,2022_Sep_19_1655,item,3.2.3,59.94633340751347,
knight,0,35,35,38,,,,,,,,,,,,,437.8768785519933,436.89322507800534,436.89322507800534,437.9000815890031,442.87655051998445,436.89322507800534,None,442.87655051998445,436.89322507800534,,,subj017,001,2022_Sep_19_1655,item,3.2.3,59.94633340751347,
ketchup,0,36,36,2,,,,,,,,,,,,,448.86028543199063,458.8596351989836,447.88340720901033,448.8934497589944,453.86673393199453,447.88340720901033,None,453.86673393199453,447.88340720901033,,,subj017,001,2022_Sep_19_1655,item,3.2.3,59.94633340751347,
walrus,0,37,37,25,,,,,,,,,,,,,459.859957623994,469.8597375509853,458.8833644510014,459.89987346500857,464.86682254000334,458.8833644510014,None,464.86682254000334,458.8833644510014,,,subj017,001,2022_Sep_19_1655,item,3.2.3,59.94633340751347,
violinist,0,38,38,39,,,,,,,,,,,,,470.86015334000695,None,469.8831260839943,470.89999911698396,475.8602165369957,469.8831260839943,None,475.8602165369957,469.8831260839943,,,subj017,001,2022_Sep_19_1655,item,3.2.3,59.94633340751347,
necklace,0,39,39,12,,,,,,,,,,,,,481.860342022992,491.8600069489912,480.8660365329997,481.860342022992,486.8656873170112,480.8660365329997,None,486.8656873170112,480.8660365329997,,,subj017,001,2022_Sep_19_1655,item,3.2.3,59.94633340751347,
,,,,,,,,,,,,,,,,,,,,,,,,,,491.88284235598985,None,,,,,,,
