Word,trials.thisRepN,trials.thisTrialN,trials.thisN,trials.thisIndex,text.started,text.stopped,key_resp.keys,key_resp.rt,key_resp.started,key_resp.stopped,text_2.started,text_2.stopped,key_resp_2.keys,key_resp_2.rt,key_resp_2.started,key_resp_2.stopped,text_3.started,text_3.stopped,text_4.started,text_4.stopped,text_5.started,text_5.stopped,key_resp_3.keys,key_resp_3.rt,key_resp_3.started,key_resp_3.stopped,text_6.started,text_6.stopped,participant,session,date,expName,psychopyVersion,frameRate,
,,,,,6.633437048993073,None,1,0.7049435600056313,6.633437048993073,None,,,,,,,,,,,,,,,,,,,subj031,001,2023_Apr_16_1454,item_20(VR),3.2.3,60.22813852180209,
,,,,,,,,,,,7.36619997699745,None,5,23.803233034035657,7.36619997699745,None,,,,,,,,,,,,,subj031,001,2023_Apr_16_1454,item_20(VR),3.2.3,60.22813852180209,
axe,0,0,0,6,,,,,,,,,,,,,32.184309217962436,42.184508628968615,31.20528514398029,32.217668037978,37.20068631297909,None,2,0.736736765014939,37.20068631297909,None,,,subj031,001,2023_Apr_16_1454,item_20(VR),3.2.3,60.22813852180209,
passport,0,1,1,16,,,,,,,,,,,,,43.18485461798264,None,42.2009357700008,43.20062610099558,48.1842780339648,42.2009357700008,2,1.0692386500304565,48.1842780339648,42.2009357700008,,,subj031,001,2023_Apr_16_1454,item_20(VR),3.2.3,60.22813852180209,
ladybug,0,2,2,10,,,,,,,,,,,,,54.18442788999528,53.18335051496979,53.18335051496979,54.18442788999528,59.184515060973354,53.18335051496979,1,1.301861527026631,59.184515060973354,53.18335051496979,,,subj031,001,2023_Apr_16_1454,item_20(VR),3.2.3,60.22813852180209,
grandfather,0,3,3,7,,,,,,,,,,,,,65.16733370098518,64.18355714395875,64.18355714395875,65.18388668796979,70.16741101699881,64.18355714395875,1,0.9320494990097359,70.16741101699881,64.18355714395875,,,subj031,001,2023_Apr_16_1454,item_20(VR),3.2.3,60.22813852180209,
cabdriver,0,4,4,8,,,,,,,,,,,,,76.15112405701075,75.16690971900243,75.16690971900243,76.17069965100382,81.15101144998334,75.16690971900243,1,0.8065782070043497,81.15101144998334,75.16690971900243,,,subj031,001,2023_Apr_16_1454,item_20(VR),3.2.3,60.22813852180209,
treadmill,0,5,5,17,,,,,,,,,,,,,87.15048124699388,86.15032168501057,86.15032168501057,87.15048124699388,92.13760825997451,86.15032168501057,2,0.5998708810075186,92.13760825997451,86.15032168501057,,,subj031,001,2023_Apr_16_1454,item_20(VR),3.2.3,60.22813852180209,
cheerleader,0,6,6,12,,,,,,,,,,,,,98.13467972399667,97.15070629300317,97.15070629300317,98.15067872800864,103.13462306099245,97.15070629300317,1,0.7369040999910794,103.13462306099245,97.15070629300317,,,subj031,001,2023_Apr_16_1454,item_20(VR),3.2.3,60.22813852180209,
porcupine,0,7,7,13,,,,,,,,,,,,,109.11782087100437,108.13388878299156,108.13388878299156,109.13398511498235,114.11808075499721,108.13388878299156,1,0.9333498519845307,114.11808075499721,108.13388878299156,,,subj031,001,2023_Apr_16_1454,item_20(VR),3.2.3,60.22813852180209,
microscope,0,8,8,1,,,,,,,,,,,,,120.10136030201102,119.11756842699833,119.11756842699833,120.11820875201374,125.10065526596736,119.11756842699833,2,0.6378696520114318,125.10065526596736,119.11756842699833,,,subj031,001,2023_Apr_16_1454,item_20(VR),3.2.3,60.22813852180209,
waterfall,0,9,9,2,,,,,,,,,,,,,131.08470893400954,130.1003953429754,130.1003953429754,131.10070698999334,136.08398356096586,130.1003953429754,2,0.5965705960406922,136.08398356096586,130.1003953429754,,,subj031,001,2023_Apr_16_1454,item_20(VR),3.2.3,60.22813852180209,
leopard,0,10,10,0,,,,,,,,,,,,,142.06808402697789,141.08488624898018,141.08488624898018,142.08493882400217,147.06818287499482,141.08488624898018,1,0.7574014760321006,147.06818287499482,141.08488624898018,,,subj031,001,2023_Apr_16_1454,item_20(VR),3.2.3,60.22813852180209,
knight,0,11,11,4,,,,,,,,,,,,,153.05141975398874,152.06726833397988,152.06726833397988,153.06825183297042,158.05048388399882,152.06726833397988,1,2.2060835380107164,158.05048388399882,152.06726833397988,,,subj031,001,2023_Apr_16_1454,item_20(VR),3.2.3,60.22813852180209,
mirror,0,12,12,11,,,,,,,,,,,,,164.03482051298488,163.05082851200132,163.05082851200132,164.05162624100922,169.03491047996795,163.05082851200132,2,0.7745299260132015,169.03491047996795,163.05082851200132,,,subj031,001,2023_Apr_16_1454,item_20(VR),3.2.3,60.22813852180209,
chipmunk,0,13,13,18,,,,,,,,,,,,,175.01816154900007,174.03374557796633,174.03374557796633,175.03500070999144,180.01823474798584,174.03374557796633,1,0.8831465939874761,180.01823474798584,174.03374557796633,,,subj031,001,2023_Apr_16_1454,item_20(VR),3.2.3,60.22813852180209,
necklace,0,14,14,3,,,,,,,,,,,,,186.0015248619602,185.01743525697384,185.01743525697384,186.01821818901226,191.00152589497156,185.01743525697384,2,0.4610344350221567,191.00152589497156,185.01743525697384,,,subj031,001,2023_Apr_16_1454,item_20(VR),3.2.3,60.22813852180209,
hummingbird,0,15,15,5,,,,,,,,,,,,,197.0008462999831,196.00150910200318,196.00150910200318,197.0008462999831,201.98472431197297,206.984181642998,1,0.9817617569933645,201.98472431197297,206.984181642998,,,subj031,001,2023_Apr_16_1454,item_20(VR),3.2.3,60.22813852180209,
snowball,0,16,16,19,,,,,,,,,,,,,207.98421003000112,207.00172952900175,207.00172952900175,208.00110336201033,212.98429662396666,None,2,1.0202290890156291,212.98429662396666,None,,,subj031,001,2023_Apr_16_1454,item_20(VR),3.2.3,60.22813852180209,
baby,0,17,17,14,,,,,,,,,,,,,218.9675541369943,217.98438608599827,217.98438608599827,218.98442152998177,223.96850349399028,217.98438608599827,1,0.45904204004909843,223.96850349399028,217.98438608599827,,,subj031,001,2023_Apr_16_1454,item_20(VR),3.2.3,60.22813852180209,
hair,0,18,18,9,,,,,,,,,,,,,229.9509444179712,228.96769513300387,228.96769513300387,229.96808791800868,234.95164594997186,228.96769513300387,2,0.7987229750142433,234.95164594997186,228.96769513300387,,,subj031,001,2023_Apr_16_1454,item_20(VR),3.2.3,60.22813852180209,
ketchup,0,19,19,15,,,,,,,,,,,,,240.93505626701517,239.95141803199658,239.95141803199658,240.95096102700336,245.93520394497318,239.95141803199658,2,0.9933367700432427,245.93520394497318,239.95141803199658,,,subj031,001,2023_Apr_16_1454,item_20(VR),3.2.3,60.22813852180209,
,,,,,,,,,,,,,,,,,,,,,,,,,,,250.9344030150096,None,,,,,,,
