Word,trials.thisRepN,trials.thisTrialN,trials.thisN,trials.thisIndex,text.started,text.stopped,key_resp.keys,key_resp.rt,key_resp.started,key_resp.stopped,text_2.started,text_2.stopped,key_resp_2.keys,key_resp_2.rt,key_resp_2.started,key_resp_2.stopped,text_3.started,text_3.stopped,text_4.started,text_4.stopped,text_5.started,text_5.stopped,key_resp_3.keys,key_resp_3.rt,key_resp_3.started,key_resp_3.stopped,text_6.started,text_6.stopped,participant,session,date,expName,psychopyVersion,frameRate,
,,,,,8.061119373014662,None,1,1.4086649960081559,8.061119373014662,None,,,,,,,,,,,,,,,,,,,subj026,001,2023_Feb_18_1345,item,3.2.3,59.97988478598945,
,,,,,,,,,,,9.494034025003202,None,5,17.595963378000306,9.494034025003202,None,,,,,,,,,,,,,subj026,001,2023_Feb_18_1345,item,3.2.3,59.97988478598945,
scalpel,0,0,0,19,,,,,,,,,,,,,28.10546278001857,None,27.11169214101392,28.112840728019364,33.09491849501501,38.10526200500317,2,1.436084144981578,33.09491849501501,38.10526200500317,,,subj026,001,2023_Feb_18_1345,item,3.2.3,59.97988478598945,
waterfall,0,1,1,18,,,,,,,,,,,,,39.11134167702403,None,38.12128881001263,39.129236505017616,44.121681130025536,None,2,2.6693012729811016,44.121681130025536,None,,,subj026,001,2023_Feb_18_1345,item,3.2.3,59.97988478598945,
elephant,0,2,2,21,,,,,,,,,,,,,50.094688420998864,60.104646454012254,49.11228812701302,50.112456544011366,55.10494120500516,None,1,0.9620421820145566,55.10494120500516,None,,,subj026,001,2023_Feb_18_1345,item,3.2.3,59.97988478598945,
fingerprint,0,3,3,11,,,,,,,,,,,,,61.11269065900706,None,60.12108330702176,61.129116863012314,66.10430673000519,None,2,1.462653603986837,66.10430673000519,None,,,subj026,001,2023_Feb_18_1345,item,3.2.3,59.97988478598945,
chipmunk,0,4,4,26,,,,,,,,,,,,,72.1044357320061,None,71.11222948000068,72.11142928502522,77.095683861,82.09585192499799,1,2.8623081230034586,77.095683861,82.09585192499799,,,subj026,001,2023_Feb_18_1345,item,3.2.3,59.97988478598945,
cheesecake,0,5,5,7,,,,,,,,,,,,,83.09581908999826,93.10460320301354,82.12151393500972,83.13789959001588,88.10469581000507,None,2,1.0652072730008513,88.10469581000507,None,,,subj026,001,2023_Feb_18_1345,item,3.2.3,59.97988478598945,
porcupine,0,6,6,22,,,,,,,,,,,,,94.09541917601018,None,93.12085537900566,94.12918021299993,99.09577881600126,None,1,1.1902551510138437,99.09577881600126,None,,,subj026,001,2023_Feb_18_1345,item,3.2.3,59.97988478598945,
stove,0,7,7,13,,,,,,,,,,,,,105.07883908401709,115.08762399901752,104.10418752601254,105.1114839700167,110.10437465499854,104.10418752601254,2,1.2445810140052345,110.10437465499854,104.10418752601254,,,subj026,001,2023_Feb_18_1345,item,3.2.3,59.97988478598945,
umbrella,0,8,8,5,,,,,,,,,,,,,116.08765680601937,126.08763295301469,115.10377444702317,116.09559578201151,121.09587733101216,115.10377444702317,2,0.9329830099886749,121.09587733101216,115.10377444702317,,,subj026,001,2023_Feb_18_1345,item,3.2.3,59.97988478598945,
knight,0,9,9,38,,,,,,,,,,,,,127.08727590402123,None,126.10386018702411,127.10409640401485,132.09494677602197,126.10386018702411,1,2.162022190022981,132.09494677602197,126.10386018702411,,,subj026,001,2023_Feb_18_1345,item,3.2.3,59.97988478598945,
ketchup,0,10,10,2,,,,,,,,,,,,,138.07859478300088,137.09568220601068,137.09568220601068,138.09499574801885,143.07944128802046,137.09568220601068,2,1.7914356760156807,143.07944128802046,137.09568220601068,,,subj026,001,2023_Feb_18_1345,item,3.2.3,59.97988478598945,
cabdriver,0,11,11,36,,,,,,,,,,,,,149.06249336100882,159.06288541899994,148.0867877700075,149.09580430801725,154.07052637499874,148.0867877700075,1,1.0933415420004167,154.07052637499874,148.0867877700075,,,subj026,001,2023_Feb_18_1345,item,3.2.3,59.97988478598945,
swan,0,12,12,29,,,,,,,,,,,,,160.06284354699892,None,159.0870606250246,160.0960822510242,165.0629614799982,159.0870606250246,None,,165.0629614799982,159.0870606250246,,,subj026,001,2023_Feb_18_1345,item,3.2.3,59.97988478598945,
leopard,0,13,13,24,,,,,,,,,,,,,171.04631332101417,170.0626894599991,170.0626894599991,171.06231727902195,176.0455595270032,170.0626894599991,1,2.3864505859964993,176.0455595270032,170.0626894599991,,,subj026,001,2023_Feb_18_1345,item,3.2.3,59.97988478598945,
donkey,0,14,14,23,,,,,,,,,,,,,182.02963023501798,181.05361391900806,181.05361391900806,182.06270003999816,187.03662814100971,181.05361391900806,1,1.1493199540127534,187.03662814100971,181.05361391900806,,,subj026,001,2023_Feb_18_1345,item,3.2.3,59.97988478598945,
hair,0,15,15,8,,,,,,,,,,,,,193.02005338101299,192.0367979950097,192.0367979950097,193.02942123400862,198.01309416501317,203.01279231300578,2,1.7139238179952372,198.01309416501317,203.01279231300578,,,subj026,001,2023_Feb_18_1345,item,3.2.3,59.97988478598945,
snowball,0,16,16,14,,,,,,,,,,,,,204.01973174800514,203.03626336500747,203.03626336500747,204.0364963300235,209.01280099301948,214.01956191600766,2,3.5760409669892397,209.01280099301948,214.01956191600766,,,subj026,001,2023_Feb_18_1345,item,3.2.3,59.97988478598945,
ladybug,0,17,17,30,,,,,,,,,,,,,215.0366138460231,214.0365636550123,214.0365636550123,215.04615508700954,220.0192757040204,225.02995612300583,1,3.6717080639791675,220.0192757040204,225.02995612300583,,,subj026,001,2023_Feb_18_1345,item,3.2.3,59.97988478598945,
treadmill,0,18,18,16,,,,,,,,,,,,,226.03610687502078,225.04598615001305,225.04598615001305,226.04621668500477,231.0291803650034,None,2,1.2896616010111757,231.0291803650034,None,,,subj026,001,2023_Feb_18_1345,item,3.2.3,59.97988478598945,
keyboard,0,19,19,15,,,,,,,,,,,,,237.01909632902243,236.03565013300977,236.03565013300977,237.04557204499724,242.01262905701878,236.03565013300977,2,1.7832236349931918,242.01262905701878,236.03565013300977,,,subj026,001,2023_Feb_18_1345,item,3.2.3,59.97988478598945,
crab,0,20,20,31,,,,,,,,,,,,,248.0129187470011,247.0194556300121,247.0194556300121,248.03594734001672,253.0122572160035,247.0194556300121,1,3.3816480170062277,253.0122572160035,247.0194556300121,,,subj026,001,2023_Feb_18_1345,item,3.2.3,59.97988478598945,
walrus,0,21,21,25,,,,,,,,,,,,,259.0022961689974,258.01278008901863,258.01278008901863,259.0131225910154,264.0024596150033,258.01278008901863,1,2.0285104509966914,264.0024596150033,258.01278008901863,,,subj026,001,2023_Feb_18_1345,item,3.2.3,59.97988478598945,
microscope,0,22,22,6,,,,,,,,,,,,,270.0024581620237,269.00170935402275,269.00170935402275,270.0024581620237,274.9796637010004,279.9797510050121,2,0.6302935069834348,274.9796637010004,279.9797510050121,,,subj026,001,2023_Feb_18_1345,item,3.2.3,59.97988478598945,
bulldozer,0,23,23,17,,,,,,,,,,,,,280.99561004701536,291.0018922390009,280.01270246200147,281.0116235130117,286.01894989502034,None,2,1.6919249970233068,286.01894989502034,None,,,subj026,001,2023_Feb_18_1345,item,3.2.3,59.97988478598945,
necklace,0,24,24,12,,,,,,,,,,,,,292.0183752090088,None,291.0122497930133,292.0183752090088,297.01327158202184,302.0133384380024,2,1.2287274950067513,297.01327158202184,302.0133384380024,,,subj026,001,2023_Feb_18_1345,item,3.2.3,59.97988478598945,
passport,0,25,25,4,,,,,,,,,,,,,303.0185303600156,302.0296000369999,302.0296000369999,303.0353000650066,308.0129752700159,313.01261776301544,2,0.7669013510167133,308.0129752700159,313.01261776301544,,,subj026,001,2023_Feb_18_1345,item,3.2.3,59.97988478598945,
violinist,0,26,26,39,,,,,,,,,,,,,314.0186747480184,313.0298635070212,313.0298635070212,314.0298702350119,319.01312322102604,None,1,4.035681128996657,319.01312322102604,None,,,subj026,001,2023_Feb_18_1345,item,3.2.3,59.97988478598945,
platypus,0,27,27,35,,,,,,,,,,,,,324.99643355901935,334.9965856659983,324.01814728500904,325.0300374740036,330.0133098040242,324.01814728500904,1,1.3096446480194572,330.0133098040242,324.01814728500904,,,subj026,001,2023_Feb_18_1345,item,3.2.3,59.97988478598945,
binoculars,0,28,28,1,,,,,,,,,,,,,335.9965797000041,None,335.01269339202554,336.01337414002046,340.9966252570157,335.01269339202554,2,1.3883312039833982,340.9966252570157,335.01269339202554,,,subj026,001,2023_Feb_18_1345,item,3.2.3,59.97988478598945,
grandfather,0,29,29,34,,,,,,,,,,,,,346.9840172830154,345.9963201210194,345.9963201210194,347.0008749300032,351.9799944090191,356.9842436190229,1,2.4129924600129016,351.9799944090191,356.9842436190229,,,subj026,001,2023_Feb_18_1345,item,3.2.3,59.97988478598945,
axe,0,30,30,0,,,,,,,,,,,,,357.9793195600214,356.9959623440227,356.9959623440227,358.0009348670137,362.9802490140137,None,2,2.8526145399955567,362.9802490140137,None,,,subj026,001,2023_Feb_18_1345,item,3.2.3,59.97988478598945,
airplane,0,31,31,9,,,,,,,,,,,,,368.9676048330148,367.98438825202174,367.98438825202174,368.97989459501696,373.96355931900325,378.96325034901383,2,2.359457704995293,373.96355931900325,378.96325034901383,,,subj026,001,2023_Feb_18_1345,item,3.2.3,59.97988478598945,
seahorse,0,32,32,33,,,,,,,,,,,,,379.9677705450158,378.9799288060167,378.9799288060167,379.9842642840231,384.96399550299975,None,1,2.0048401540261693,384.96399550299975,None,,,subj026,001,2023_Feb_18_1345,item,3.2.3,59.97988478598945,
hairstylist,0,33,33,37,,,,,,,,,,,,,390.9623677880154,389.97934212800465,389.97934212800465,390.9793740970199,395.9633904470247,389.97934212800465,1,3.7205630270182155,395.9633904470247,389.97934212800465,,,subj026,001,2023_Feb_18_1345,item,3.2.3,59.97988478598945,
mirror,0,34,34,10,,,,,,,,,,,,,401.946721772023,411.9468399210018,400.96271454999805,401.9627010450058,406.95073295899783,400.96271454999805,2,1.7122265009966213,406.95073295899783,400.96271454999805,,,subj026,001,2023_Feb_18_1345,item,3.2.3,59.97988478598945,
camera,0,35,35,3,,,,,,,,,,,,,412.9460597250145,422.946250352019,411.963218111021,412.96319548302563,417.9499948990124,411.963218111021,2,1.059987959015416,417.9499948990124,411.963218111021,,,subj026,001,2023_Feb_18_1345,item,3.2.3,59.97988478598945,
cheerleader,0,36,36,32,,,,,,,,,,,,,423.9465787540248,433.94670565699926,422.96289395101485,423.9633673430071,428.94973602102255,422.96289395101485,1,3.8712407819984946,428.94973602102255,422.96289395101485,,,subj026,001,2023_Feb_18_1345,item,3.2.3,59.97988478598945,
baby,0,37,37,20,,,,,,,,,,,,,434.9468008130207,None,433.96274706500117,434.96360624200315,439.94595713101444,433.96274706500117,1,1.6158621519862209,439.94595713101444,433.96274706500117,,,subj026,001,2023_Feb_18_1345,item,3.2.3,59.97988478598945,
coyote,0,38,38,27,,,,,,,,,,,,,445.9301383800048,444.9469828730216,444.9469828730216,445.9469252230192,450.9302218280209,444.9469828730216,1,3.764726502005942,450.9302218280209,444.9469828730216,,,subj026,001,2023_Feb_18_1345,item,3.2.3,59.97988478598945,
hummingbird,0,39,39,28,,,,,,,,,,,,,456.91660392601625,455.9331830610172,455.9331830610172,456.9303326549998,461.9304092710081,455.9331830610172,1,1.0725712349812966,461.9304092710081,455.9331830610172,,,subj026,001,2023_Feb_18_1345,item,3.2.3,59.97988478598945,
,,,,,,,,,,,,,,,,,,,,,,,,,,,466.93035706001683,None,,,,,,,
