Word,trials.thisRepN,trials.thisTrialN,trials.thisN,trials.thisIndex,text.started,text.stopped,key_resp.keys,key_resp.rt,key_resp.started,key_resp.stopped,text_2.started,text_2.stopped,key_resp_2.keys,key_resp_2.rt,key_resp_2.started,key_resp_2.stopped,text_3.started,text_3.stopped,text_4.started,text_4.stopped,text_5.started,text_5.stopped,key_resp_3.keys,key_resp_3.rt,key_resp_3.started,key_resp_3.stopped,text_6.started,text_6.stopped,participant,session,date,expName,psychopyVersion,frameRate,
,,,,,8.083444673015038,None,1,6.143198820005637,8.083444673015038,None,,,,,,,,,,,,,,,,,,,subj030,001,2023_Apr_01_1140,item,3.2.3,59.9217663762296,
,,,,,,,,,,,14.253511832997901,None,5,18.187300788005814,14.253511832997901,None,,,,,,,,,,,,,subj030,001,2023_Apr_01_1140,item,3.2.3,59.9217663762296,
walrus,0,0,0,25,,,,,,,,,,,,,33.4702559740108,None,32.48339524000767,33.48718183301389,38.465660342015326,None,1,0.5010589080047794,38.465660342015326,None,,,subj030,001,2023_Apr_01_1140,item,3.2.3,59.9217663762296,
cabdriver,0,1,1,36,,,,,,,,,,,,,44.470887752017006,43.4696196160221,43.4696196160221,44.470887752017006,49.466674565017456,54.46627823301242,1,0.6081177599844523,49.466674565017456,54.46627823301242,,,subj030,001,2023_Apr_01_1140,item,3.2.3,59.9217663762296,
hummingbird,0,2,2,28,,,,,,,,,,,,,55.48310209999909,None,54.48292237901478,55.48310209999909,60.48243136901874,None,1,0.6174034449795727,60.48243136901874,None,,,subj030,001,2023_Apr_01_1140,item,3.2.3,59.9217663762296,
elephant,0,3,3,21,,,,,,,,,,,,,66.46635614900151,None,65.48247563000768,66.48319842800265,71.47122273000423,None,1,0.48856927501037717,71.47122273000423,None,,,subj030,001,2023_Apr_01_1140,item,3.2.3,59.9217663762296,
mirror,0,4,4,10,,,,,,,,,,,,,77.453888930002,76.47086788600427,76.47086788600427,77.47137021902017,82.45414948000689,76.47086788600427,2,0.5746546940063126,82.45414948000689,76.47086788600427,,,subj030,001,2023_Apr_01_1140,item,3.2.3,59.9217663762296,
airplane,0,5,5,9,,,,,,,,,,,,,88.46610387900728,87.45330638199812,87.45330638199812,88.46610387900728,93.43755851199967,98.4373025780078,1,1.5202563909988385,93.43755851199967,98.4373025780078,,,subj030,001,2023_Apr_01_1140,item,3.2.3,59.9217663762296,
violinist,0,6,6,39,,,,,,,,,,,,,99.46562186200754,None,98.46967694201157,99.48235953401309,104.46467912301887,None,1,0.3901327080093324,104.46467912301887,None,,,subj030,001,2023_Apr_01_1140,item,3.2.3,59.9217663762296,
camera,0,7,7,3,,,,,,,,,,,,,110.4647171710094,None,109.48259847000008,110.49883487500483,115.46582189001492,None,2,0.39399622700875625,115.46582189001492,None,,,subj030,001,2023_Apr_01_1140,item,3.2.3,59.9217663762296,
stove,0,8,8,13,,,,,,,,,,,,,121.46578942300403,120.46567195400712,120.46567195400712,121.46578942300403,126.46542360802414,120.46567195400712,2,0.3943904080078937,126.46542360802414,120.46567195400712,,,subj030,001,2023_Apr_01_1140,item,3.2.3,59.9217663762296,
microscope,0,9,9,6,,,,,,,,,,,,,132.4537455100217,142.45465710700955,131.46967651700834,132.47134239700972,137.46518831900903,None,2,0.48562301200581715,137.46518831900903,None,,,subj030,001,2023_Apr_01_1140,item,3.2.3,59.9217663762296,
porcupine,0,10,10,22,,,,,,,,,,,,,143.45406916202046,None,142.47080192601425,143.47109307302162,148.4547133120068,None,1,0.651950890023727,148.4547133120068,None,,,subj030,001,2023_Apr_01_1140,item,3.2.3,59.9217663762296,
snowball,0,11,11,14,,,,,,,,,,,,,154.44843996001873,164.45341535500484,153.46522887202445,154.4539325410151,159.47046668702387,153.46522887202445,2,0.7483152619970497,159.47046668702387,153.46522887202445,,,subj030,001,2023_Apr_01_1140,item,3.2.3,59.9217663762296,
scalpel,0,12,12,19,,,,,,,,,,,,,165.45416608202504,None,164.47055980601,165.4705741670041,170.45461555299698,164.47055980601,2,0.6110936919867527,170.45461555299698,164.47055980601,,,subj030,001,2023_Apr_01_1140,item,3.2.3,59.9217663762296,
passport,0,13,13,4,,,,,,,,,,,,,176.43756993699935,175.46451510101906,175.46451510101906,176.47078688102192,181.43707124100183,175.46451510101906,2,0.9695609349873848,181.43707124100183,175.46451510101906,,,subj030,001,2023_Apr_01_1140,item,3.2.3,59.9217663762296,
cheerleader,0,14,14,32,,,,,,,,,,,,,187.4314079080068,186.4481724590005,186.4481724590005,187.43740977000562,192.4208302810148,197.42145156199695,1,0.5920417529996485,192.4208302810148,197.42145156199695,,,subj030,001,2023_Apr_01_1140,item,3.2.3,59.9217663762296,
keyboard,0,15,15,15,,,,,,,,,,,,,198.43745487101842,197.437021559017,197.437021559017,198.43745487101842,203.43758472800255,None,2,0.44624099298380315,203.43758472800255,None,,,subj030,001,2023_Apr_01_1140,item,3.2.3,59.9217663762296,
necklace,0,16,16,12,,,,,,,,,,,,,209.4309830480197,208.43796551402193,208.43796551402193,209.4477907679975,214.42185035301372,219.42133609199664,2,0.8459664940019138,214.42185035301372,219.42133609199664,,,subj030,001,2023_Apr_01_1140,item,3.2.3,59.9217663762296,
binoculars,0,17,17,1,,,,,,,,,,,,,220.4203696550103,219.4378063690092,219.4378063690092,220.4381798170216,225.42060073302127,None,2,0.6132033470203169,225.42060073302127,None,,,subj030,001,2023_Apr_01_1140,item,3.2.3,59.9217663762296,
platypus,0,18,18,35,,,,,,,,,,,,,231.45394438001676,230.47057438801858,230.47057438801858,231.4706565180095,236.45395145801012,230.47057438801858,1,0.42988885298836976,236.45395145801012,230.47057438801858,,,subj030,001,2023_Apr_01_1140,item,3.2.3,59.9217663762296,
axe,0,19,19,0,,,,,,,,,,,,,242.43779245601036,241.4548451230221,241.4548451230221,242.4540220000199,247.43726063502254,241.4548451230221,2,0.5385451469919644,247.43726063502254,241.4548451230221,,,subj030,001,2023_Apr_01_1140,item,3.2.3,59.9217663762296,
seahorse,0,20,20,33,,,,,,,,,,,,,253.42025417499826,252.4467945130018,252.4467945130018,253.454235548008,258.4208396800095,252.4467945130018,1,0.44799846698879264,258.4208396800095,252.4467945130018,,,subj030,001,2023_Apr_01_1140,item,3.2.3,59.9217663762296,
coyote,0,21,21,27,,,,,,,,,,,,,264.42154846701305,263.43056079599774,263.43056079599774,264.43829600402387,269.42171066300943,263.43056079599774,1,0.46792863801238127,269.42171066300943,263.43056079599774,,,subj030,001,2023_Apr_01_1140,item,3.2.3,59.9217663762296,
ketchup,0,22,22,2,,,,,,,,,,,,,275.4043626700004,274.42168106901227,274.42168106901227,275.4216752500215,280.4040552700171,274.42168106901227,2,0.4316983960161451,280.4040552700171,274.42168106901227,,,subj030,001,2023_Apr_01_1140,item,3.2.3,59.9217663762296,
fingerprint,0,23,23,11,,,,,,,,,,,,,286.40510709999944,285.4132207110233,285.4132207110233,286.4213928390236,291.3884135069966,296.38765827100724,1,4.166240855993237,291.3884135069966,296.38765827100724,,,subj030,001,2023_Apr_01_1140,item,3.2.3,59.9217663762296,
swan,0,24,24,29,,,,,,,,,,,,,297.3885116460151,307.3876345560129,296.40481629400165,297.40542510000523,302.3968478710158,None,1,0.4639391990203876,302.3968478710158,None,,,subj030,001,2023_Apr_01_1140,item,3.2.3,59.9217663762296,
grandfather,0,25,25,34,,,,,,,,,,,,,308.38782580100815,None,307.40495892902254,308.4041191810102,313.3877873290039,307.40495892902254,1,0.6439207489893306,313.3877873290039,307.40495892902254,,,subj030,001,2023_Apr_01_1140,item,3.2.3,59.9217663762296,
hairstylist,0,26,26,37,,,,,,,,,,,,,319.37121643600403,318.39617579302285,318.39617579302285,319.40520239801845,324.3715877740178,318.39617579302285,1,0.7531877840228844,324.3715877740178,318.39617579302285,,,subj030,001,2023_Apr_01_1140,item,3.2.3,59.9217663762296,
hair,0,27,27,8,,,,,,,,,,,,,330.3716732850007,329.3797322040191,329.3797322040191,330.3876762240252,335.37171554300585,329.3797322040191,1,3.022069104015827,335.37171554300585,329.3797322040191,,,subj030,001,2023_Apr_01_1140,item,3.2.3,59.9217663762296,
umbrella,0,28,28,5,,,,,,,,,,,,,341.35504384100204,340.3798456680088,340.3798456680088,341.3960557380051,346.36281069600955,340.3798456680088,2,0.33903320698300377,346.36281069600955,340.3798456680088,,,subj030,001,2023_Apr_01_1140,item,3.2.3,59.9217663762296,
baby,0,29,29,20,,,,,,,,,,,,,352.35523246301454,351.3621491390222,351.3621491390222,352.37126168599934,357.35522334300913,351.3621491390222,1,0.40961443999549374,357.35522334300913,351.3621491390222,,,subj030,001,2023_Apr_01_1140,item,3.2.3,59.9217663762296,
waterfall,0,30,30,18,,,,,,,,,,,,,363.3385876539978,362.3544809349987,362.3544809349987,363.35449729001266,368.33863530799863,362.3544809349987,2,0.43006967499968596,368.33863530799863,362.3544809349987,,,subj030,001,2023_Apr_01_1140,item,3.2.3,59.9217663762296,
knight,0,31,31,38,,,,,,,,,,,,,374.3219438550004,384.32131807602127,373.34601491701324,374.35405428000377,379.32948011902045,373.34601491701324,1,0.46229745098389685,379.32948011902045,373.34601491701324,,,subj030,001,2023_Apr_01_1140,item,3.2.3,59.9217663762296,
leopard,0,32,32,24,,,,,,,,,,,,,385.321306576021,None,384.3391011780186,385.355281133001,390.3217769130133,384.3391011780186,1,0.5518871459935326,390.3217769130133,384.3391011780186,,,subj030,001,2023_Apr_01_1140,item,3.2.3,59.9217663762296,
crab,0,33,33,31,,,,,,,,,,,,,396.3049350660003,395.3287701770023,395.3287701770023,396.33863121501054,401.30508641700726,395.3287701770023,1,0.6717302559991367,401.30508641700726,395.3287701770023,,,subj030,001,2023_Apr_01_1140,item,3.2.3,59.9217663762296,
donkey,0,34,34,23,,,,,,,,,,,,,407.2883698270016,406.30414915800793,406.30414915800793,407.3052289970219,412.2884451030113,406.30414915800793,1,0.5792007780109998,412.2884451030113,406.30414915800793,,,subj030,001,2023_Apr_01_1140,item,3.2.3,59.9217663762296,
treadmill,0,35,35,16,,,,,,,,,,,,,418.271837059001,428.2786295620026,417.28829675301677,418.2885201230238,423.27853176000644,417.28829675301677,2,0.5322643860126846,423.27853176000644,417.28829675301677,,,subj030,001,2023_Apr_01_1140,item,3.2.3,59.9217663762296,
ladybug,0,36,36,30,,,,,,,,,,,,,429.287971348007,None,428.2948542050144,429.3053552460042,434.2781170850212,428.2948542050144,1,0.6726987750153057,434.2781170850212,428.2948542050144,,,subj030,001,2023_Apr_01_1140,item,3.2.3,59.9217663762296,
cheesecake,0,37,37,7,,,,,,,,,,,,,440.27692310800194,439.28872199801845,439.28872199801845,440.28843856899766,445.2721434959967,450.2714152140252,2,0.5325350850180257,445.2721434959967,450.2714152140252,,,subj030,001,2023_Apr_01_1140,item,3.2.3,59.9217663762296,
bulldozer,0,38,38,17,,,,,,,,,,,,,451.2784126900078,450.28831245499896,450.28831245499896,451.28857846200117,456.2878760980093,None,2,0.47183560600387864,456.2878760980093,None,,,subj030,001,2023_Apr_01_1140,item,3.2.3,59.9217663762296,
chipmunk,0,39,39,26,,,,,,,,,,,,,462.27195969299646,461.2947923140018,461.2947923140018,462.310746830015,467.27201200599666,461.2947923140018,1,0.5287782360101119,467.27201200599666,461.2947923140018,,,subj030,001,2023_Apr_01_1140,item,3.2.3,59.9217663762296,
,,,,,,,,,,,,,,,,,,,,,,,,,,,472.27811189502245,None,,,,,,,
