Word,trials.thisRepN,trials.thisTrialN,trials.thisN,trials.thisIndex,text.started,text.stopped,key_resp.keys,key_resp.rt,key_resp.started,key_resp.stopped,text_2.started,text_2.stopped,key_resp_2.keys,key_resp_2.rt,key_resp_2.started,key_resp_2.stopped,text_3.started,text_3.stopped,text_4.started,text_4.stopped,text_5.started,text_5.stopped,key_resp_3.keys,key_resp_3.rt,key_resp_3.started,key_resp_3.stopped,text_6.started,text_6.stopped,participant,session,date,expName,psychopyVersion,frameRate,
,,,,,15.036816959999669,None,1,2.762084643999515,15.036816959999669,None,,,,,,,,,,,,,,,,,,,subj005,002,2021_Nov_09_1917,item,3.2.3,59.85709059765069,
,,,,,,,,,,,17.81861043400022,None,5,17.832325917000162,17.81861043400022,None,,,,,,,,,,,,,subj005,002,2021_Nov_09_1917,item,3.2.3,59.85709059765069,
violinist,0,0,0,39,,,,,,,,,,,,,36.66951457699997,46.66958123400036,35.68629932000022,36.686733315999845,41.670123895999495,None,1,0.7758033170002818,41.670123895999495,None,,,subj005,002,2021_Nov_09_1917,item,3.2.3,59.85709059765069,
ladybug,0,1,1,30,,,,,,,,,,,,,47.68559899899992,None,46.685787819000325,47.68559899899992,52.686064407999766,None,1,0.6048292559999027,52.686064407999766,None,,,subj005,002,2021_Nov_09_1917,item,3.2.3,59.85709059765069,
airplane,0,2,2,9,,,,,,,,,,,,,58.668984799999635,None,57.68572525299987,58.68612558800032,63.6690758499999,None,1,0.5608235709996734,63.6690758499999,None,,,subj005,002,2021_Nov_09_1917,item,3.2.3,59.85709059765069,
coyote,0,3,3,27,,,,,,,,,,,,,69.65235465299975,79.65238535299977,68.66901590599991,69.66918978800004,74.65367874099957,None,1,0.6712377590001779,74.65367874099957,None,,,subj005,002,2021_Nov_09_1917,item,3.2.3,59.85709059765069,
hummingbird,0,4,4,28,,,,,,,,,,,,,80.6692243159996,None,79.66937137500008,80.6692243159996,85.66898352499993,79.66937137500008,1,0.4599246759999005,85.66898352499993,79.66937137500008,,,subj005,002,2021_Nov_09_1917,item,3.2.3,59.85709059765069,
grandfather,0,5,5,34,,,,,,,,,,,,,91.65208497099957,90.6690136340003,90.6690136340003,91.67020264999974,96.65226576199984,90.6690136340003,1,0.5154400270002952,96.65226576199984,90.6690136340003,,,subj005,002,2021_Nov_09_1917,item,3.2.3,59.85709059765069,
waterfall,0,6,6,18,,,,,,,,,,,,,102.63551155999994,101.65133688300011,101.65133688300011,102.652291032,107.63624710299973,101.65133688300011,1,1.0246168860003309,107.63624710299973,101.65133688300011,,,subj005,002,2021_Nov_09_1917,item,3.2.3,59.85709059765069,
keyboard,0,7,7,15,,,,,,,,,,,,,113.62043158699998,112.65183236099983,112.65183236099983,113.65207575800014,118.62002235299951,112.65183236099983,2,1.1218703049999021,118.62002235299951,112.65183236099983,,,subj005,002,2021_Nov_09_1917,item,3.2.3,59.85709059765069,
elephant,0,8,8,21,,,,,,,,,,,,,124.60310029900029,123.61913189699953,123.61913189699953,124.61991027099975,129.60316324399992,123.61913189699953,1,1.0335703479995573,129.60316324399992,123.61913189699953,,,subj005,002,2021_Nov_09_1917,item,3.2.3,59.85709059765069,
crab,0,9,9,31,,,,,,,,,,,,,135.5864010610003,134.60329608499978,134.60329608499978,135.60330672700002,140.58650620699973,134.60329608499978,1,0.7502028669996434,140.58650620699973,134.60329608499978,,,subj005,002,2021_Nov_09_1917,item,3.2.3,59.85709059765069,
microscope,0,10,10,6,,,,,,,,,,,,,146.5697110629999,145.58664110599966,145.58664110599966,146.58657022599982,151.56979071499973,145.58664110599966,2,1.9700796669994816,151.56979071499973,145.58664110599966,,,subj005,002,2021_Nov_09_1917,item,3.2.3,59.85709059765069,
donkey,0,11,11,23,,,,,,,,,,,,,157.55305403900002,156.56917656899986,156.56917656899986,157.56986954100012,162.5530771650001,156.56917656899986,1,0.7146596510001473,162.5530771650001,156.56917656899986,,,subj005,002,2021_Nov_09_1917,item,3.2.3,59.85709059765069,
platypus,0,12,12,35,,,,,,,,,,,,,168.53749311299998,167.55347278599947,167.55347278599947,168.55430437199993,173.5374912540001,167.55347278599947,1,1.7822439179999492,173.5374912540001,167.55347278599947,,,subj005,002,2021_Nov_09_1917,item,3.2.3,59.85709059765069,
leopard,0,13,13,24,,,,,,,,,,,,,179.52071893300035,178.53627161500026,178.53627161500026,179.53754621200005,184.52074943699972,178.53627161500026,2,0.35311635000016395,184.52074943699972,178.53627161500026,,,subj005,002,2021_Nov_09_1917,item,3.2.3,59.85709059765069,
stove,0,14,14,13,,,,,,,,,,,,,190.50392664399988,189.51960844600035,189.51960844600035,190.52046865299963,195.50395831999958,189.51960844600035,2,0.6967673999997714,195.50395831999958,189.51960844600035,,,subj005,002,2021_Nov_09_1917,item,3.2.3,59.85709059765069,
passport,0,15,15,4,,,,,,,,,,,,,201.48721985999964,200.5032671150002,200.5032671150002,201.50366892300008,206.48676735499976,200.5032671150002,2,0.5290095820000715,206.48676735499976,200.5032671150002,,,subj005,002,2021_Nov_09_1917,item,3.2.3,59.85709059765069,
bulldozer,0,16,16,17,,,,,,,,,,,,,212.46982872599983,211.48658739500024,211.48658739500024,212.48675052499948,217.46992937699997,211.48658739500024,1,0.8209462049999274,217.46992937699997,211.48658739500024,,,subj005,002,2021_Nov_09_1917,item,3.2.3,59.85709059765069,
porcupine,0,17,17,22,,,,,,,,,,,,,223.45313967099992,222.46971749800014,222.46971749800014,223.4699829430001,228.45321369500016,222.46971749800014,1,0.8345293459997265,228.45321369500016,222.46971749800014,,,subj005,002,2021_Nov_09_1917,item,3.2.3,59.85709059765069,
seahorse,0,18,18,33,,,,,,,,,,,,,234.43643716899987,233.45350133099964,233.45350133099964,234.4533013199998,239.43651296000007,233.45350133099964,1,1.0293482060005772,239.43651296000007,233.45350133099964,,,subj005,002,2021_Nov_09_1917,item,3.2.3,59.85709059765069,
binoculars,0,19,19,1,,,,,,,,,,,,,245.41974043200025,244.43758797200007,244.43758797200007,245.45455043600032,250.4209376379995,244.43758797200007,2,0.7930149280000478,250.4209376379995,244.43758797200007,,,subj005,002,2021_Nov_09_1917,item,3.2.3,59.85709059765069,
scalpel,0,20,20,19,,,,,,,,,,,,,256.4040342879998,255.42074060899995,255.42074060899995,256.4207667009996,261.4033310340001,255.42074060899995,2,0.9104897850002089,261.4033310340001,255.42074060899995,,,subj005,002,2021_Nov_09_1917,item,3.2.3,59.85709059765069,
umbrella,0,21,21,5,,,,,,,,,,,,,267.3873841300001,266.4034865650001,266.4034865650001,267.403403671,272.3874740929996,266.4034865650001,2,1.318267712999841,272.3874740929996,266.4034865650001,,,subj005,002,2021_Nov_09_1917,item,3.2.3,59.85709059765069,
fingerprint,0,22,22,11,,,,,,,,,,,,,278.3706687670001,277.38682878300006,277.38682878300006,278.38733399600005,283.3700290750003,277.38682878300006,2,0.6326958480003668,283.3700290750003,277.38682878300006,,,subj005,002,2021_Nov_09_1917,item,3.2.3,59.85709059765069,
cheerleader,0,23,23,32,,,,,,,,,,,,,289.35341331699965,288.37086069199995,288.37086069199995,289.37010203299997,294.35342683199997,288.37086069199995,1,0.560474140000224,294.35342683199997,288.37086069199995,,,subj005,002,2021_Nov_09_1917,item,3.2.3,59.85709059765069,
treadmill,0,24,24,16,,,,,,,,,,,,,300.3366594580002,299.353521989,299.353521989,300.35341285899995,305.3496165919996,299.353521989,1,0.8021274799993989,305.3496165919996,299.353521989,,,subj005,002,2021_Nov_09_1917,item,3.2.3,59.85709059765069,
snowball,0,25,25,14,,,,,,,,,,,,,311.3328930529997,310.34960633300034,310.34960633300034,311.3496859249999,316.3328718489993,310.34960633300034,2,0.9570199930003582,316.3328718489993,310.34960633300034,,,subj005,002,2021_Nov_09_1917,item,3.2.3,59.85709059765069,
cabdriver,0,26,26,36,,,,,,,,,,,,,322.31612415900054,321.3322700970002,321.3322700970002,322.3329915939994,327.31620121299966,321.3322700970002,1,1.582534236000356,327.31620121299966,321.3322700970002,,,subj005,002,2021_Nov_09_1917,item,3.2.3,59.85709059765069,
ketchup,0,27,27,2,,,,,,,,,,,,,333.30422669200016,332.31618877000074,332.31618877000074,333.3208923000002,338.30449049399977,332.31618877000074,2,1.0262862950003182,338.30449049399977,332.31618877000074,,,subj005,002,2021_Nov_09_1917,item,3.2.3,59.85709059765069,
hairstylist,0,28,28,37,,,,,,,,,,,,,344.3039698470002,343.31578485299906,343.31578485299906,344.3207659559994,349.3040715089992,343.31578485299906,1,1.486847226999089,349.3040715089992,343.31578485299906,,,subj005,002,2021_Nov_09_1917,item,3.2.3,59.85709059765069,
mirror,0,29,29,10,,,,,,,,,,,,,355.2822991159992,365.282458746,354.3041603599995,355.3157660029992,360.29915998899924,354.3041603599995,2,0.9236932649982919,360.29915998899924,354.3041603599995,,,subj005,002,2021_Nov_09_1917,item,3.2.3,59.85709059765069,
swan,0,30,30,29,,,,,,,,,,,,,366.2867661149994,None,365.299031605,366.31561501000033,371.2868845440007,365.299031605,1,1.0489784050005255,371.2868845440007,365.299031605,,,subj005,002,2021_Nov_09_1917,item,3.2.3,59.85709059765069,
knight,0,31,31,38,,,,,,,,,,,,,377.2655107779992,376.28767356299977,376.28767356299977,377.28648348800016,382.2650292390008,376.28767356299977,1,1.0378266679999797,382.2650292390008,376.28767356299977,,,subj005,002,2021_Nov_09_1917,item,3.2.3,59.85709059765069,
cheesecake,0,32,32,7,,,,,,,,,,,,,388.2650554409993,387.2652020149999,387.2652020149999,388.281357206999,393.25416089399914,398.25440782400074,2,2.1836049779994937,393.25416089399914,398.25440782400074,,,subj005,002,2021_Nov_09_1917,item,3.2.3,59.85709059765069,
axe,0,33,33,0,,,,,,,,,,,,,399.25440097499995,398.2816877330006,398.2816877330006,399.28758247800033,404.2544412820007,None,2,0.6594187639984739,404.2544412820007,None,,,subj005,002,2021_Nov_09_1917,item,3.2.3,59.85709059765069,
walrus,0,34,34,25,,,,,,,,,,,,,410.23773518599955,409.2537398250006,409.2537398250006,410.2541856049993,415.23777889399935,409.2537398250006,1,0.9430863580000732,415.23777889399935,409.2537398250006,,,subj005,002,2021_Nov_09_1917,item,3.2.3,59.85709059765069,
necklace,0,35,35,12,,,,,,,,,,,,,421.2210722309992,420.23786959899917,420.23786959899917,421.23744206599986,426.2203413719999,420.23786959899917,2,0.9735600320000231,426.2203413719999,420.23786959899917,,,subj005,002,2021_Nov_09_1917,item,3.2.3,59.85709059765069,
chipmunk,0,36,36,26,,,,,,,,,,,,,432.2204729389996,431.23147066099955,431.23147066099955,432.23721962499985,437.2209189719997,431.23147066099955,1,0.8278759329987224,437.2209189719997,431.23147066099955,,,subj005,002,2021_Nov_09_1917,item,3.2.3,59.85709059765069,
camera,0,37,37,3,,,,,,,,,,,,,443.21473080599935,442.22072039500017,442.22072039500017,443.2204791870008,448.2033900810002,453.2141692869991,2,0.688516209998852,448.2033900810002,453.2141692869991,,,subj005,002,2021_Nov_09_1917,item,3.2.3,59.85709059765069,
hair,0,38,38,8,,,,,,,,,,,,,454.2531971209992,453.23104081100064,453.23104081100064,454.2643649370002,459.20370110899967,464.2044809229992,2,1.6871688989995164,459.20370110899967,464.2044809229992,,,subj005,002,2021_Nov_09_1917,item,3.2.3,59.85709059765069,
baby,0,39,39,20,,,,,,,,,,,,,465.25447495700064,464.2644356509991,464.2644356509991,465.2711663739992,470.2372064629999,475.23801749999984,1,0.709671212000103,470.2372064629999,475.23801749999984,,,subj005,002,2021_Nov_09_1917,item,3.2.3,59.85709059765069,
,,,,,,,,,,,,,,,,,,,,,,,,,,,475.2547088430001,None,,,,,,,
