Word,trials.thisRepN,trials.thisTrialN,trials.thisN,trials.thisIndex,text.started,text.stopped,key_resp.keys,key_resp.rt,key_resp.started,key_resp.stopped,text_2.started,text_2.stopped,key_resp_2.keys,key_resp_2.rt,key_resp_2.started,key_resp_2.stopped,text_3.started,text_3.stopped,text_4.started,text_4.stopped,text_5.started,text_5.stopped,key_resp_3.keys,key_resp_3.rt,key_resp_3.started,key_resp_3.stopped,text_6.started,text_6.stopped,participant,session,date,expName,psychopyVersion,frameRate,
,,,,,6.559542445000261,None,1,17.426975439997477,6.559542445000261,None,,,,,,,,,,,,,,,,,,,subj010,001,2022_Jul_11_1506,item,3.2.3,60.28697734697872,
,,,,,,,,,,,24.01040392199866,None,5,42.52497238599972,24.01040392199866,None,,,,,,,,,,,,,subj010,001,2022_Jul_11_1506,item,3.2.3,60.28697734697872,
swan,0,0,0,29,,,,,,,,,,,,,67.55378575099894,None,66.55296308299876,67.57047198999862,72.54381145399748,77.54304606999722,1,2.0776849770008994,72.54381145399748,77.54304606999722,,,subj010,001,2022_Jul_11_1506,item,3.2.3,60.28697734697872,
bulldozer,0,1,1,17,,,,,,,,,,,,,78.56025250399762,None,77.55920246799724,78.56025250399762,83.56040015200051,None,2,0.5071110440003395,83.56040015200051,None,,,subj010,001,2022_Jul_11_1506,item,3.2.3,60.28697734697872,
cheerleader,0,2,2,32,,,,,,,,,,,,,89.55345044400019,None,88.56046180699923,89.57027451199974,94.59279406999849,None,1,1.0696245840008487,94.59279406999849,None,,,subj010,001,2022_Jul_11_1506,item,3.2.3,60.28697734697872,
knight,0,3,3,38,,,,,,,,,,,,,100.54299207099757,110.55318097700001,99.55988497699946,100.55988259600053,105.55269766399942,None,1,1.0597104240005137,105.55269766399942,None,,,subj010,001,2022_Jul_11_1506,item,3.2.3,60.28697734697872,
baby,0,4,4,20,,,,,,,,,,,,,111.56012112099779,None,110.5700092779989,111.57682493299944,116.54409155199755,121.54336430900003,1,0.7892674850008916,116.54409155199755,121.54336430900003,,,subj010,001,2022_Jul_11_1506,item,3.2.3,60.28697734697872,
microscope,0,5,5,6,,,,,,,,,,,,,122.56019851699966,None,121.56963042899952,122.57647702999748,127.54341981799735,132.542879583998,2,0.9680018229992129,127.54341981799735,132.542879583998,,,subj010,001,2022_Jul_11_1506,item,3.2.3,60.28697734697872,
hummingbird,0,6,6,28,,,,,,,,,,,,,133.54389907400036,None,132.55985722499827,133.56973543099957,138.54313696799727,None,1,0.8562829469992721,138.54313696799727,None,,,subj010,001,2022_Jul_11_1506,item,3.2.3,60.28697734697872,
ladybug,0,7,7,30,,,,,,,,,,,,,144.53588652399776,143.5528338969998,143.5528338969998,144.5431949479971,149.52728438099803,154.53615875999822,1,0.6670758860018395,149.52728438099803,154.53615875999822,,,subj010,001,2022_Jul_11_1506,item,3.2.3,60.28697734697872,
cabdriver,0,8,8,36,,,,,,,,,,,,,155.54422280499784,154.55234206599926,154.55234206599926,155.56058603400015,160.55266490699796,None,1,1.6988238140002068,160.55266490699796,None,,,subj010,001,2022_Jul_11_1506,item,3.2.3,60.28697734697872,
umbrella,0,9,9,5,,,,,,,,,,,,,166.5437221769971,None,165.5514214449977,166.5437221769971,171.53586094899947,None,2,1.9806552589980129,171.53586094899947,None,,,subj010,001,2022_Jul_11_1506,item,3.2.3,60.28697734697872,
waterfall,0,10,10,18,,,,,,,,,,,,,177.5268295019996,176.5432823150004,176.5432823150004,177.54327037999974,182.52661234399784,176.5432823150004,2,1.7958823529988877,182.52661234399784,176.5432823150004,,,subj010,001,2022_Jul_11_1506,item,3.2.3,60.28697734697872,
seahorse,0,11,11,33,,,,,,,,,,,,,188.5102905599997,187.52662137399966,187.52662137399966,188.5274501399981,193.51080618199921,187.52662137399966,1,0.872730186998524,193.51080618199921,187.52662137399966,,,subj010,001,2022_Jul_11_1506,item,3.2.3,60.28697734697872,
fingerprint,0,12,12,11,,,,,,,,,,,,,199.49391425099748,198.51851115399768,198.51851115399768,199.52756852399762,204.4936403799984,198.51851115399768,2,0.4608945379986835,204.4936403799984,198.51851115399768,,,subj010,001,2022_Jul_11_1506,item,3.2.3,60.28697734697872,
crab,0,13,13,31,,,,,,,,,,,,,210.47704406000048,209.49334912300037,209.49334912300037,210.4933907449995,215.47720571899845,209.49334912300037,1,0.6561930080024467,215.47720571899845,209.49334912300037,,,subj010,001,2022_Jul_11_1506,item,3.2.3,60.28697734697872,
hair,0,14,14,8,,,,,,,,,,,,,221.46840616899863,220.4774929669984,220.4774929669984,221.4775531310006,226.4685640530006,220.4774929669984,2,1.5329375250003068,226.4685640530006,220.4774929669984,,,subj010,001,2022_Jul_11_1506,item,3.2.3,60.28697734697872,
scalpel,0,15,15,19,,,,,,,,,,,,,232.46012375899954,231.4850013489995,231.4850013489995,232.50155440099843,237.46097160999852,231.4850013489995,2,0.6974146120010118,237.46097160999852,231.4850013489995,,,subj010,001,2022_Jul_11_1506,item,3.2.3,60.28697734697872,
hairstylist,0,16,16,37,,,,,,,,,,,,,243.44398211999942,253.45068228799937,242.46812400399722,243.4773374369979,248.4673774469993,242.46812400399722,1,0.5199535059982736,248.4673774469993,242.46812400399722,,,subj010,001,2022_Jul_11_1506,item,3.2.3,60.28697734697872,
snowball,0,17,17,14,,,,,,,,,,,,,254.46045386699916,None,253.46773984099855,254.47753517399906,259.4445406779996,264.4509944519996,2,0.787023868997494,259.4445406779996,264.4509944519996,,,subj010,001,2022_Jul_11_1506,item,3.2.3,60.28697734697872,
passport,0,18,18,4,,,,,,,,,,,,,265.4675249259999,264.46703066899863,264.46703066899863,265.4840672329992,270.4441971519991,275.4441762569986,2,1.3613439750006364,270.4441971519991,275.4441762569986,,,subj010,001,2022_Jul_11_1506,item,3.2.3,60.28697734697872,
chipmunk,0,19,19,26,,,,,,,,,,,,,276.48419529199964,275.4841373889976,275.4841373889976,276.5011758649998,281.4775047160001,286.4775921069995,1,1.4850099600007525,281.4775047160001,286.4775921069995,,,subj010,001,2022_Jul_11_1506,item,3.2.3,60.28697734697872,
porcupine,0,20,20,22,,,,,,,,,,,,,287.484275892999,286.4938061069988,286.4938061069988,287.50077100199996,292.4769754070003,297.4777357219973,1,1.0523958929989021,292.4769754070003,297.4777357219973,,,subj010,001,2022_Jul_11_1506,item,3.2.3,60.28697734697872,
elephant,0,21,21,21,,,,,,,,,,,,,298.47774865300016,297.4940107199982,297.4940107199982,298.49409634999756,303.47708809899996,None,1,1.5824266790004913,303.47708809899996,None,,,subj010,001,2022_Jul_11_1506,item,3.2.3,60.28697734697872,
grandfather,0,22,22,34,,,,,,,,,,,,,309.46111951700004,308.48416975500004,308.48416975500004,309.49461035199784,314.46035224799925,308.48416975500004,1,1.1521743179982877,314.46035224799925,308.48416975500004,,,subj010,001,2022_Jul_11_1506,item,3.2.3,60.28697734697872,
axe,0,23,23,0,,,,,,,,,,,,,320.46153009299815,319.4674593609998,319.4674593609998,320.46153009299815,325.46097023699986,319.4674593609998,2,1.0945549770003709,325.46097023699986,319.4674593609998,,,subj010,001,2022_Jul_11_1506,item,3.2.3,60.28697734697872,
leopard,0,24,24,24,,,,,,,,,,,,,331.46102296000026,330.4670823619999,330.4670823619999,331.47777496599883,336.4610696999989,330.4670823619999,1,1.4204231639996578,336.4610696999989,330.4670823619999,,,subj010,001,2022_Jul_11_1506,item,3.2.3,60.28697734697872,
coyote,0,25,25,27,,,,,,,,,,,,,342.4443676810006,341.46055265299947,341.46055265299947,342.46120403799796,347.444444722998,341.46055265299947,1,0.8190703459986253,347.444444722998,341.46055265299947,,,subj010,001,2022_Jul_11_1506,item,3.2.3,60.28697734697872,
treadmill,0,26,26,16,,,,,,,,,,,,,353.4274955019973,352.4502690160007,352.4502690160007,353.46659670999725,358.42787440199754,352.4502690160007,2,1.1406309800004237,358.42787440199754,352.4502690160007,,,subj010,001,2022_Jul_11_1506,item,3.2.3,60.28697734697872,
necklace,0,27,27,12,,,,,,,,,,,,,364.42715931099883,374.433255093998,363.43328863900024,364.4439529739975,369.4331878819976,363.43328863900024,2,1.5903143750001618,369.4331878819976,363.43328863900024,,,subj010,001,2022_Jul_11_1506,item,3.2.3,60.28697734697872,
donkey,0,28,28,23,,,,,,,,,,,,,375.4275492349989,385.443495962998,374.4492944179983,375.46125742299773,380.44511390700063,374.4492944179983,1,1.0004053089978697,380.44511390700063,374.4492944179983,,,subj010,001,2022_Jul_11_1506,item,3.2.3,60.28697734697872,
stove,0,29,29,13,,,,,,,,,,,,,386.4445000960004,None,385.4605378589986,386.46096416100045,391.4446260229997,385.4605378589986,2,3.5327784400033124,391.4446260229997,385.4605378589986,,,subj010,001,2022_Jul_11_1506,item,3.2.3,60.28697734697872,
camera,0,30,30,3,,,,,,,,,,,,,397.4279429809976,396.4497742429994,396.4497742429994,397.4611564279985,402.4280057529977,396.4497742429994,2,1.3643996130012965,402.4280057529977,396.4497742429994,,,subj010,001,2022_Jul_11_1506,item,3.2.3,60.28697734697872,
airplane,0,31,31,9,,,,,,,,,,,,,408.4113222729975,418.41098975899877,407.4326269630001,408.4494333219991,413.41551576599886,407.4326269630001,None,,413.41551576599886,407.4326269630001,,,subj010,001,2022_Jul_11_1506,item,3.2.3,60.28697734697872,
ketchup,0,32,32,2,,,,,,,,,,,,,419.4156733309974,None,418.4278041990001,419.4285181230007,424.41582227099934,418.4278041990001,2,0.5237156969997159,424.41582227099934,418.4278041990001,,,subj010,001,2022_Jul_11_1506,item,3.2.3,60.28697734697872,
cheesecake,0,33,33,7,,,,,,,,,,,,,430.4112087180001,429.42721357499977,429.42721357499977,430.4280353899994,435.4112596979976,429.42721357499977,2,1.295277105000423,435.4112596979976,429.42721357499977,,,subj010,001,2022_Jul_11_1506,item,3.2.3,60.28697734697872,
violinist,0,34,34,39,,,,,,,,,,,,,441.39455832100066,451.398830823,440.41543252200063,441.42741007699806,446.3988259639991,440.41543252200063,1,0.6876740180014167,446.3988259639991,440.41543252200063,,,subj010,001,2022_Jul_11_1506,item,3.2.3,60.28697734697872,
keyboard,0,35,35,15,,,,,,,,,,,,,452.39470633699966,462.39902825199897,451.415404864998,452.42792506899787,457.398905834998,451.415404864998,2,1.9615091520026908,457.398905834998,451.415404864998,,,subj010,001,2022_Jul_11_1506,item,3.2.3,60.28697734697872,
platypus,0,36,36,35,,,,,,,,,,,,,463.39899267299916,None,462.4151187549978,463.4153162429975,468.3945031189978,473.3941510099976,1,2.585838038001384,468.3945031189978,473.3941510099976,,,subj010,001,2022_Jul_11_1506,item,3.2.3,60.28697734697872,
binoculars,0,37,37,1,,,,,,,,,,,,,474.3940337469976,473.41138508899894,473.41138508899894,474.41143268700034,479.39471256699835,None,2,1.2397823259998404,479.39471256699835,None,,,subj010,001,2022_Jul_11_1506,item,3.2.3,60.28697734697872,
mirror,0,38,38,10,,,,,,,,,,,,,485.37793758099724,484.3978309239974,484.3978309239974,485.4114759660006,490.3780895689997,484.3978309239974,2,1.0104484469993622,490.3780895689997,484.3978309239974,,,subj010,001,2022_Jul_11_1506,item,3.2.3,60.28697734697872,
walrus,0,39,39,25,,,,,,,,,,,,,496.38118437199955,495.3769894500001,495.3769894500001,496.38118437199955,501.3773570109988,506.3781794459974,1,1.6000040949984395,501.3773570109988,506.3781794459974,,,subj010,001,2022_Jul_11_1506,item,3.2.3,60.28697734697872,
,,,,,,,,,,,,,,,,,,,,,,,,,,,506.39424443999815,None,,,,,,,
