Word,trials.thisRepN,trials.thisTrialN,trials.thisN,trials.thisIndex,text.started,text.stopped,key_resp.keys,key_resp.rt,key_resp.started,key_resp.stopped,text_2.started,text_2.stopped,key_resp_2.keys,key_resp_2.rt,key_resp_2.started,key_resp_2.stopped,text_3.started,text_3.stopped,text_4.started,text_4.stopped,text_5.started,text_5.stopped,key_resp_3.keys,key_resp_3.rt,key_resp_3.started,key_resp_3.stopped,text_6.started,text_6.stopped,participant,session,date,expName,psychopyVersion,frameRate,
,,,,,6.81451112600007,None,1,1.2219391090002318,6.81451112600007,None,,,,,,,,,,,,,,,,,,,subj016,001,2022_Oct_02_1106,item_20(VR),3.2.3,60.4276532705837,
,,,,,,,,,,,8.064830121000341,None,5,17.430801737000365,8.064830121000341,None,,,,,,,,,,,,,subj016,001,2022_Oct_02_1106,item_20(VR),3.2.3,60.4276532705837,
cabdriver,0,0,0,8,,,,,,,,,,,,,26.515587409001455,None,25.515034396001283,26.515587409001455,31.514882708001096,None,1,2.5776770989996294,31.514882708001096,None,,,subj016,001,2022_Oct_02_1106,item_20(VR),3.2.3,60.4276532705837,
porcupine,0,1,1,13,,,,,,,,,,,,,37.49761601300088,47.498382023000886,36.51478394700098,37.51502193000124,42.515100721000636,None,1,0.6853387160008424,42.515100721000636,None,,,subj016,001,2022_Oct_02_1106,item_20(VR),3.2.3,60.4276532705837,
chipmunk,0,2,2,18,,,,,,,,,,,,,48.499129682000785,None,47.51511898900026,48.51516665800045,53.49832137500016,58.49721483700159,1,0.6612656699999206,53.49832137500016,58.49721483700159,,,subj016,001,2022_Oct_02_1106,item_20(VR),3.2.3,60.4276532705837,
waterfall,0,3,3,2,,,,,,,,,,,,,59.49759295500007,69.49847112600037,58.51518285600105,59.53118401200118,64.49948251500064,None,2,0.39900027499970747,64.49948251500064,None,,,subj016,001,2022_Oct_02_1106,item_20(VR),3.2.3,60.4276532705837,
necklace,0,4,4,3,,,,,,,,,,,,,70.49943074900148,None,69.51464463100092,70.51468736000061,75.49815949600088,80.49817426200025,2,0.6714299519990163,75.49815949600088,80.49817426200025,,,subj016,001,2022_Oct_02_1106,item_20(VR),3.2.3,60.4276532705837,
baby,0,5,5,14,,,,,,,,,,,,,81.49821445500129,None,80.51488501000131,81.51426442200136,86.49824376800098,None,1,0.8413203769996471,86.49824376800098,None,,,subj016,001,2022_Oct_02_1106,item_20(VR),3.2.3,60.4276532705837,
microscope,0,6,6,1,,,,,,,,,,,,,92.4814471790014,91.49731084100131,91.49731084100131,92.497732662001,97.4813598310011,91.49731084100131,2,3.465133079000225,97.4813598310011,91.49731084100131,,,subj016,001,2022_Oct_02_1106,item_20(VR),3.2.3,60.4276532705837,
ladybug,0,7,7,10,,,,,,,,,,,,,103.4647533770003,102.48081873699994,102.48081873699994,103.48109811300128,108.46462356800112,102.48081873699994,1,0.8518194739990577,108.46462356800112,102.48081873699994,,,subj016,001,2022_Oct_02_1106,item_20(VR),3.2.3,60.4276532705837,
treadmill,0,8,8,17,,,,,,,,,,,,,114.44805662800172,113.46417434100113,113.46417434100113,114.46441933599999,119.44767431100081,113.46417434100113,2,0.4729105209989939,119.44767431100081,113.46417434100113,,,subj016,001,2022_Oct_02_1106,item_20(VR),3.2.3,60.4276532705837,
mirror,0,9,9,11,,,,,,,,,,,,,125.43092978999994,124.44764773300085,124.44764773300085,125.44877376100158,130.43084398500105,124.44764773300085,2,0.9536007149999932,130.43084398500105,124.44764773300085,,,subj016,001,2022_Oct_02_1106,item_20(VR),3.2.3,60.4276532705837,
axe,0,10,10,6,,,,,,,,,,,,,136.41580002000046,135.43195355600074,135.43195355600074,136.43256387100155,141.4152890510013,135.43195355600074,2,0.7462844370002131,141.4152890510013,135.43195355600074,,,subj016,001,2022_Oct_02_1106,item_20(VR),3.2.3,60.4276532705837,
ketchup,0,11,11,15,,,,,,,,,,,,,147.39891557900046,146.41513916400072,146.41513916400072,147.4153300850012,152.3985772390006,146.41513916400072,2,0.9818855260000419,152.3985772390006,146.41513916400072,,,subj016,001,2022_Oct_02_1106,item_20(VR),3.2.3,60.4276532705837,
snowball,0,12,12,19,,,,,,,,,,,,,158.38247977100036,157.39838193600008,157.39838193600008,158.39859406600044,163.38176600299994,157.39838193600008,2,0.3496629530000064,163.38176600299994,157.39838193600008,,,subj016,001,2022_Oct_02_1106,item_20(VR),3.2.3,60.4276532705837,
hummingbird,0,13,13,5,,,,,,,,,,,,,169.36513074200047,179.3652252260017,168.38206582900057,169.38196965800125,174.39847609700155,168.38206582900057,1,0.39207822999924247,174.39847609700155,168.38206582900057,,,subj016,001,2022_Oct_02_1106,item_20(VR),3.2.3,60.4276532705837,
grandfather,0,14,14,7,,,,,,,,,,,,,180.38203894800063,None,179.39823768000133,180.39841597400118,185.3815817220002,179.39823768000133,1,0.6239930589999858,185.3815817220002,179.39823768000133,,,subj016,001,2022_Oct_02_1106,item_20(VR),3.2.3,60.4276532705837,
hair,0,15,15,9,,,,,,,,,,,,,191.3664907070015,190.3832280200004,190.3832280200004,191.38288617700164,196.36653267800102,190.3832280200004,1,0.3930295300015132,196.36653267800102,190.3832280200004,,,subj016,001,2022_Oct_02_1106,item_20(VR),3.2.3,60.4276532705837,
knight,0,16,16,4,,,,,,,,,,,,,202.34920622000027,201.36584657000094,201.36584657000094,202.36608428300133,207.34928838199994,201.36584657000094,1,0.6112662539999292,207.34928838199994,201.36584657000094,,,subj016,001,2022_Oct_02_1106,item_20(VR),3.2.3,60.4276532705837,
passport,0,17,17,16,,,,,,,,,,,,,213.3325165490005,212.34910427000068,212.34910427000068,213.34930366200024,218.33255652900152,212.34910427000068,2,0.3770541169997159,218.33255652900152,212.34910427000068,,,subj016,001,2022_Oct_02_1106,item_20(VR),3.2.3,60.4276532705837,
leopard,0,18,18,0,,,,,,,,,,,,,224.31580208200103,223.3323170450003,223.3323170450003,224.33247270500033,229.31573832400136,223.3323170450003,1,0.42483972599984554,229.31573832400136,223.3323170450003,,,subj016,001,2022_Oct_02_1106,item_20(VR),3.2.3,60.4276532705837,
cheerleader,0,19,19,12,,,,,,,,,,,,,235.2990861620001,234.31552731900047,234.31552731900047,235.3158099960001,240.2992062250014,234.31552731900047,1,0.47823135600083333,240.2992062250014,234.31552731900047,,,subj016,001,2022_Oct_02_1106,item_20(VR),3.2.3,60.4276532705837,
,,,,,,,,,,,,,,,,,,,,,,,,,,,245.29894851400059,None,,,,,,,
