Word,trials.thisRepN,trials.thisTrialN,trials.thisN,trials.thisIndex,text.started,text.stopped,key_resp.keys,key_resp.rt,key_resp.started,key_resp.stopped,text_2.started,text_2.stopped,key_resp_2.keys,key_resp_2.rt,key_resp_2.started,key_resp_2.stopped,text_3.started,text_3.stopped,text_4.started,text_4.stopped,text_5.started,text_5.stopped,key_resp_3.keys,key_resp_3.rt,key_resp_3.started,key_resp_3.stopped,text_6.started,text_6.stopped,participant,session,date,expName,psychopyVersion,frameRate,
,,,,,6.149572572001489,None,1,7.200002448982559,6.149572572001489,None,,,,,,,,,,,,,,,,,,,subj025,001,2023_Feb_19_1058,item,3.2.3,60.24573234655851,
,,,,,,,,,,,13.365981627983274,None,5,32.54482933401596,13.365981627983274,None,,,,,,,,,,,,,subj025,001,2023_Feb_19_1058,item,3.2.3,60.24573234655851,
airplane,0,0,0,9,,,,,,,,,,,,,46.93373624800006,None,45.95075846798136,46.950293522007996,51.93318709300365,None,2,1.4034803709946573,51.93318709300365,None,,,subj025,001,2023_Feb_19_1058,item,3.2.3,60.24573234655851,
keyboard,0,1,1,15,,,,,,,,,,,,,57.93319514399627,None,56.933649209997384,57.93319514399627,62.93346509200637,None,2,1.0472974690201227,62.93346509200637,None,,,subj025,001,2023_Feb_19_1058,item,3.2.3,60.24573234655851,
grandfather,0,2,2,34,,,,,,,,,,,,,68.91769544099225,None,67.93370312298066,68.9336382279871,73.91707890300313,None,1,0.809671941009583,73.91707890300313,None,,,subj025,001,2023_Feb_19_1058,item,3.2.3,60.24573234655851,
crab,0,3,3,31,,,,,,,,,,,,,79.9010534719855,78.91666966598132,78.91666966598132,79.91707869400852,84.9011799239961,78.91666966598132,1,1.4514325630152598,84.9011799239961,78.91666966598132,,,subj025,001,2023_Feb_19_1058,item,3.2.3,60.24573234655851,
passport,0,4,4,4,,,,,,,,,,,,,90.88438998899073,89.90031897800509,89.90031897800509,90.90031771498616,95.8844343109813,89.90031897800509,2,1.1593500869930722,95.8844343109813,89.90031897800509,,,subj025,001,2023_Feb_19_1058,item,3.2.3,60.24573234655851,
elephant,0,5,5,21,,,,,,,,,,,,,101.86774960398907,111.86791246398934,100.88367715198547,101.88472078400082,106.88474119498278,100.88367715198547,1,0.7819135159952566,106.88474119498278,100.88367715198547,,,subj025,001,2023_Feb_19_1058,item,3.2.3,60.24573234655851,
cheesecake,0,6,6,7,,,,,,,,,,,,,112.86794162899605,None,111.88473093599896,112.88470507098828,117.86803976199008,111.88473093599896,2,1.6247471230162773,117.86803976199008,111.88473093599896,,,subj025,001,2023_Feb_19_1058,item,3.2.3,60.24573234655851,
porcupine,0,7,7,22,,,,,,,,,,,,,123.8512477070035,122.8680480030016,122.8680480030016,123.86792518798029,128.850463854993,122.8680480030016,1,1.9572682620200794,128.850463854993,122.8680480030016,,,subj025,001,2023_Feb_19_1058,item,3.2.3,60.24573234655851,
waterfall,0,8,8,18,,,,,,,,,,,,,134.83384616099647,133.850349454995,133.850349454995,134.85094148598728,139.83412360798684,133.850349454995,2,1.1046444090025034,139.83412360798684,133.850349454995,,,subj025,001,2023_Feb_19_1058,item,3.2.3,60.24573234655851,
stove,0,9,9,13,,,,,,,,,,,,,145.81764222399215,144.83383545398829,144.83383545398829,145.8337345070031,150.81722106199595,144.83383545398829,2,1.0224441880127415,150.81722106199595,144.83383545398829,,,subj025,001,2023_Feb_19_1058,item,3.2.3,60.24573234655851,
hairstylist,0,10,10,37,,,,,,,,,,,,,156.8013501559908,155.81707600399386,155.81707600399386,156.81734329700703,161.8006279259862,166.80064768099692,1,1.9660208869900089,161.8006279259862,166.80064768099692,,,subj025,001,2023_Feb_19_1058,item,3.2.3,60.24573234655851,
microscope,0,11,11,6,,,,,,,,,,,,,167.81662487899303,166.81633380998392,166.81633380998392,167.81662487899303,172.81674124399433,None,2,0.7980406610004138,172.81674124399433,None,,,subj025,001,2023_Feb_19_1058,item,3.2.3,60.24573234655851,
cheerleader,0,12,12,32,,,,,,,,,,,,,178.80002587399213,177.81713417798164,177.81713417798164,178.81713275198126,183.80015588598326,177.81713417798164,1,0.7344651969906408,183.80015588598326,177.81713417798164,,,subj025,001,2023_Feb_19_1058,item,3.2.3,60.24573234655851,
bulldozer,0,13,13,17,,,,,,,,,,,,,189.80037816200638,188.80011846200796,188.80011846200796,189.80037816200638,194.800366793992,188.80011846200796,2,0.8332996340177488,194.800366793992,188.80011846200796,,,subj025,001,2023_Feb_19_1058,item,3.2.3,60.24573234655851,
camera,0,14,14,3,,,,,,,,,,,,,200.78355690499302,199.79997088797973,199.79997088797973,200.79994227798306,205.7835297419806,199.79997088797973,2,1.368088876013644,205.7835297419806,199.79997088797973,,,subj025,001,2023_Feb_19_1058,item,3.2.3,60.24573234655851,
mirror,0,15,15,10,,,,,,,,,,,,,211.76689503298257,221.76656838000054,210.78395423598704,211.78330474399263,216.81650811099098,210.78395423598704,2,0.7882441569818184,216.81650811099098,210.78395423598704,,,subj025,001,2023_Feb_19_1058,item,3.2.3,60.24573234655851,
swan,0,16,16,29,,,,,,,,,,,,,222.80014499800745,None,221.81654958298896,222.81653101099073,227.79973750398494,221.81654958298896,1,1.0550340060144663,227.79973750398494,221.81654958298896,,,subj025,001,2023_Feb_19_1058,item,3.2.3,60.24573234655851,
axe,0,17,17,0,,,,,,,,,,,,,233.78343291999772,232.8013437759946,232.8013437759946,233.81790575600462,238.78474186599487,232.8013437759946,2,0.6530167240125593,238.78474186599487,232.8013437759946,,,subj025,001,2023_Feb_19_1058,item,3.2.3,60.24573234655851,
leopard,0,18,18,24,,,,,,,,,,,,,244.76776502098073,243.78396202399745,243.78396202399745,244.78429950398277,249.76737655099714,243.78396202399745,1,0.6692318650020752,249.76737655099714,243.78396202399745,,,subj025,001,2023_Feb_19_1058,item,3.2.3,60.24573234655851,
hair,0,19,19,8,,,,,,,,,,,,,255.75108049999108,254.7674351889873,254.7674351889873,255.76749415000086,260.7507318359858,254.7674351889873,2,1.0358868280018214,260.7507318359858,254.7674351889873,,,subj025,001,2023_Feb_19_1058,item,3.2.3,60.24573234655851,
hummingbird,0,20,20,28,,,,,,,,,,,,,266.7508295699954,265.7505545580061,265.7505545580061,266.7508295699954,271.7508396600024,265.7505545580061,1,0.7449320899904706,271.7508396600024,265.7505545580061,,,subj025,001,2023_Feb_19_1058,item,3.2.3,60.24573234655851,
baby,0,21,21,20,,,,,,,,,,,,,277.7339655579999,276.7514709919924,276.7514709919924,277.7509914599941,282.73416574599105,276.7514709919924,1,1.1975955119996797,282.73416574599105,276.7514709919924,,,subj025,001,2023_Feb_19_1058,item,3.2.3,60.24573234655851,
donkey,0,22,22,23,,,,,,,,,,,,,288.7184899119893,287.7351182809798,287.7351182809798,288.735329793999,293.7185614499904,287.7351182809798,1,0.7380604180216324,293.7185614499904,287.7351182809798,,,subj025,001,2023_Feb_19_1058,item,3.2.3,60.24573234655851,
chipmunk,0,23,23,26,,,,,,,,,,,,,299.7016935829888,298.7179130029981,298.7179130029981,299.71843192898086,304.7018312139844,298.7179130029981,1,1.0219561129924841,304.7018312139844,298.7179130029981,,,subj025,001,2023_Feb_19_1058,item,3.2.3,60.24573234655851,
platypus,0,24,24,35,,,,,,,,,,,,,310.6850768389995,309.70025089700357,309.70025089700357,310.70172339398414,315.68518504098756,309.70025089700357,1,0.8344578710093629,315.68518504098756,309.70025089700357,,,subj025,001,2023_Feb_19_1058,item,3.2.3,60.24573234655851,
snowball,0,25,25,14,,,,,,,,,,,,,321.66839006898226,320.6849873299943,320.6849873299943,321.68515108298743,326.6683940679941,320.6849873299943,2,0.6063865780015476,326.6683940679941,320.6849873299943,,,subj025,001,2023_Feb_19_1058,item,3.2.3,60.24573234655851,
scalpel,0,26,26,19,,,,,,,,,,,,,332.6509699439921,331.66759995400207,331.66759995400207,332.66799172299216,337.6510553599801,331.66759995400207,2,0.9877249300188851,337.6510553599801,331.66759995400207,,,subj025,001,2023_Feb_19_1058,item,3.2.3,60.24573234655851,
umbrella,0,27,27,5,,,,,,,,,,,,,343.63428711899905,342.6512321209884,342.6512321209884,343.65110038899,348.631969894981,342.6512321209884,2,2.2706283110019285,348.631969894981,342.6512321209884,,,subj025,001,2023_Feb_19_1058,item,3.2.3,60.24573234655851,
walrus,0,28,28,25,,,,,,,,,,,,,354.6174925889936,353.63454362898483,353.63454362898483,354.6344198839797,359.61761806398863,353.63454362898483,1,0.7551546859904192,359.61761806398863,353.63454362898483,,,subj025,001,2023_Feb_19_1058,item,3.2.3,60.24573234655851,
binoculars,0,29,29,1,,,,,,,,,,,,,365.601817474002,364.6178702749894,364.6178702749894,365.61884243099485,370.6020567539963,364.6178702749894,2,0.5456804250134155,370.6020567539963,364.6178702749894,,,subj025,001,2023_Feb_19_1058,item,3.2.3,60.24573234655851,
necklace,0,30,30,12,,,,,,,,,,,,,376.58516234499984,375.60194658700493,375.60194658700493,376.6019651249808,381.5844520099927,375.60194658700493,2,0.7573164019850083,381.5844520099927,375.60194658700493,,,subj025,001,2023_Feb_19_1058,item,3.2.3,60.24573234655851,
violinist,0,31,31,39,,,,,,,,,,,,,387.56848696700763,386.58430669500376,386.58430669500376,387.58530844800407,392.56856543399044,386.58430669500376,1,0.4311015579733066,392.56856543399044,386.58430669500376,,,subj025,001,2023_Feb_19_1058,item,3.2.3,60.24573234655851,
knight,0,32,32,38,,,,,,,,,,,,,398.5517635139986,397.56870236599934,397.56870236599934,398.568494067993,403.55173713798285,397.56870236599934,1,0.7230547009967268,403.55173713798285,397.56870236599934,,,subj025,001,2023_Feb_19_1058,item,3.2.3,60.24573234655851,
ladybug,0,33,33,30,,,,,,,,,,,,,409.5344140729867,408.55198049600585,408.55198049600585,409.5512373649981,414.5344906319806,408.55198049600585,1,0.6932951100170612,414.5344906319806,408.55198049600585,,,subj025,001,2023_Feb_19_1058,item,3.2.3,60.24573234655851,
fingerprint,0,34,34,11,,,,,,,,,,,,,420.53454669800703,419.6133188219974,419.6133188219974,420.6187215789978,425.5346224909881,419.6133188219974,2,0.8381557560060173,425.5346224909881,419.6133188219974,,,subj025,001,2023_Feb_19_1058,item,3.2.3,60.24573234655851,
cabdriver,0,35,35,36,,,,,,,,,,,,,431.54757907500607,430.5467524289852,430.5467524289852,431.5640460609866,436.5472487139923,430.5467524289852,1,0.8874320970207918,436.5472487139923,430.5467524289852,,,subj025,001,2023_Feb_19_1058,item,3.2.3,60.24573234655851,
treadmill,0,36,36,16,,,,,,,,,,,,,442.54727106099017,441.54724904699833,441.54724904699833,442.54727106099017,447.53536782300216,441.54724904699833,2,1.4722827179939486,447.53536782300216,441.54724904699833,,,subj025,001,2023_Feb_19_1058,item,3.2.3,60.24573234655851,
ketchup,0,37,37,2,,,,,,,,,,,,,453.5355191270064,452.5472380319843,452.5472380319843,453.55186900898116,458.53558007400716,452.5472380319843,2,1.1071579919953365,458.53558007400716,452.5472380319843,,,subj025,001,2023_Feb_19_1058,item,3.2.3,60.24573234655851,
seahorse,0,38,38,33,,,,,,,,,,,,,464.5348771499994,474.54713325499324,463.54698811500566,464.55195888498565,469.5352497389831,463.54698811500566,1,0.5815055619750638,469.5352497389831,463.54698811500566,,,subj025,001,2023_Feb_19_1058,item,3.2.3,60.24573234655851,
coyote,0,39,39,27,,,,,,,,,,,,,475.55141456300044,None,474.56345010499354,475.5682324949885,480.54672080199816,474.56345010499354,1,0.7480761629994959,480.54672080199816,474.56345010499354,,,subj025,001,2023_Feb_19_1058,item,3.2.3,60.24573234655851,
,,,,,,,,,,,,,,,,,,,,,,,,,,,485.5518556869938,None,,,,,,,
