Word,trials.thisRepN,trials.thisTrialN,trials.thisN,trials.thisIndex,text.started,text.stopped,key_resp.keys,key_resp.rt,key_resp.started,key_resp.stopped,text_2.started,text_2.stopped,key_resp_2.keys,key_resp_2.rt,key_resp_2.started,key_resp_2.stopped,text_3.started,text_3.stopped,text_4.started,text_4.stopped,text_5.started,text_5.stopped,key_resp_3.keys,key_resp_3.started,key_resp_3.stopped,text_6.started,text_6.stopped,participant,session,date,expName,psychopyVersion,frameRate,
,,,,,11.016914472013013,None,1,5.602566394984024,11.016914472013013,None,,,,,,,,,,,,,,,,,,subj027,001,2023_Apr_02_1408,item_20(VR),3.2.3,60.2715327742146,
,,,,,,,,,,,16.653103557997383,None,5,17.646443461009767,16.653103557997383,None,,,,,,,,,,,,subj027,001,2023_Apr_02_1408,item_20(VR),3.2.3,60.2715327742146,
necklace,0,0,0,3,,,,,,,,,,,,,35.31772852499853,None,34.31651964300545,35.31772852499853,40.300721159001114,45.301509054988855,None,40.300721159001114,45.301509054988855,,,subj027,001,2023_Apr_02_1408,item_20(VR),3.2.3,60.2715327742146,
hair,0,1,1,9,,,,,,,,,,,,,46.301061756996205,None,45.318302977015264,46.31753763201414,51.30154029899859,None,None,51.30154029899859,None,,,subj027,001,2023_Apr_02_1408,item_20(VR),3.2.3,60.2715327742146,
waterfall,0,2,2,2,,,,,,,,,,,,,57.284329574991716,56.301848317991244,56.301848317991244,57.30149497900857,62.28444134100573,56.301848317991244,None,62.28444134100573,56.301848317991244,,,subj027,001,2023_Apr_02_1408,item_20(VR),3.2.3,60.2715327742146,
hummingbird,0,3,3,5,,,,,,,,,,,,,68.28410003700992,78.28428471501684,67.2839161180018,68.28410003700992,73.31700939001166,67.2839161180018,None,73.31700939001166,67.2839161180018,,,subj027,001,2023_Apr_02_1408,item_20(VR),3.2.3,60.2715327742146,
treadmill,0,4,4,17,,,,,,,,,,,,,79.30016037801397,None,78.31757679700968,79.31749183201464,84.30151943300734,None,None,84.30151943300734,None,,,subj027,001,2023_Apr_02_1408,item_20(VR),3.2.3,60.2715327742146,
cabdriver,0,5,5,8,,,,,,,,,,,,,90.28479128700565,89.30054142000154,89.30054142000154,90.30099306599004,95.28488464499242,89.30054142000154,None,95.28488464499242,89.30054142000154,,,subj027,001,2023_Apr_02_1408,item_20(VR),3.2.3,60.2715327742146,
baby,0,6,6,14,,,,,,,,,,,,,101.26809041301021,100.28510679100873,100.28510679100873,101.28422643101658,106.26789586001541,100.28510679100873,None,106.26789586001541,100.28510679100873,,,subj027,001,2023_Apr_02_1408,item_20(VR),3.2.3,60.2715327742146,
porcupine,0,7,7,13,,,,,,,,,,,,,112.25219592201756,111.26727520200075,111.26727520200075,112.2683277509932,117.25128183999914,111.26727520200075,None,117.25128183999914,111.26727520200075,,,subj027,001,2023_Apr_02_1408,item_20(VR),3.2.3,60.2715327742146,
chipmunk,0,8,8,18,,,,,,,,,,,,,123.2345489860163,122.25123549200362,122.25123549200362,123.25162492299569,128.23498978398857,122.25123549200362,None,128.23498978398857,122.25123549200362,,,subj027,001,2023_Apr_02_1408,item_20(VR),3.2.3,60.2715327742146,
leopard,0,9,9,0,,,,,,,,,,,,,134.21895034701447,133.23504208400846,133.23504208400846,134.2342193259974,139.21793604799313,133.23504208400846,None,139.21793604799313,133.23504208400846,,,subj027,001,2023_Apr_02_1408,item_20(VR),3.2.3,60.2715327742146,
grandfather,0,10,10,7,,,,,,,,,,,,,145.20111842700862,144.21817806799663,144.21817806799663,145.21740431699436,150.2007854770054,144.21817806799663,None,150.2007854770054,144.21817806799663,,,subj027,001,2023_Apr_02_1408,item_20(VR),3.2.3,60.2715327742146,
snowball,0,11,11,19,,,,,,,,,,,,,156.18553940800484,155.20186978499987,155.20186978499987,156.20172540299245,161.18546461101505,166.1851425789937,None,161.18546461101505,166.1851425789937,,,subj027,001,2023_Apr_02_1408,item_20(VR),3.2.3,60.2715327742146,
mirror,0,12,12,11,,,,,,,,,,,,,167.18515019200277,166.20094244601205,166.20094244601205,167.2011495619954,172.18518265199964,None,None,172.18518265199964,None,,,subj027,001,2023_Apr_02_1408,item_20(VR),3.2.3,60.2715327742146,
passport,0,13,13,16,,,,,,,,,,,,,178.16830405200017,177.18449551300728,177.18449551300728,178.18450419799774,183.16844349901658,177.18449551300728,None,183.16844349901658,177.18449551300728,,,subj027,001,2023_Apr_02_1408,item_20(VR),3.2.3,60.2715327742146,
knight,0,14,14,4,,,,,,,,,,,,,189.15161560400156,188.1678917350073,188.1678917350073,189.16785914401407,194.1508477780153,188.1678917350073,None,194.1508477780153,188.1678917350073,,,subj027,001,2023_Apr_02_1408,item_20(VR),3.2.3,60.2715327742146,
cheerleader,0,15,15,12,,,,,,,,,,,,,200.13507950201165,210.13528886300628,199.15092431701487,200.1513659209886,205.1520592099987,199.15092431701487,None,205.1520592099987,199.15092431701487,,,subj027,001,2023_Apr_02_1408,item_20(VR),3.2.3,60.2715327742146,
microscope,0,16,16,1,,,,,,,,,,,,,211.15133263499592,None,210.15116112999385,211.15133263499592,216.15141150701675,210.15116112999385,None,216.15141150701675,210.15116112999385,,,subj027,001,2023_Apr_02_1408,item_20(VR),3.2.3,60.2715327742146,
axe,0,17,17,6,,,,,,,,,,,,,222.13465908600483,221.15139330399688,221.15139330399688,222.15070167699014,227.1346962620155,221.15139330399688,None,227.1346962620155,221.15139330399688,,,subj027,001,2023_Apr_02_1408,item_20(VR),3.2.3,60.2715327742146,
ketchup,0,18,18,15,,,,,,,,,,,,,233.11730635899585,232.13405654599774,232.13405654599774,233.13439279200975,238.11732019600458,232.13405654599774,None,238.11732019600458,232.13405654599774,,,subj027,001,2023_Apr_02_1408,item_20(VR),3.2.3,60.2715327742146,
ladybug,0,19,19,10,,,,,,,,,,,,,244.10054414600017,243.11736060099793,243.11736060099793,244.11735053700977,249.100621487014,243.11736060099793,None,249.100621487014,243.11736060099793,,,subj027,001,2023_Apr_02_1408,item_20(VR),3.2.3,60.2715327742146,
,,,,,,,,,,,,,,,,,,,,,,,,,,254.10154252900975,None,,,,,,,
