Word,trials.thisRepN,trials.thisTrialN,trials.thisN,trials.thisIndex,text.started,text.stopped,key_resp.keys,key_resp.rt,key_resp.started,key_resp.stopped,text_2.started,text_2.stopped,key_resp_2.keys,key_resp_2.rt,key_resp_2.started,key_resp_2.stopped,text_3.started,text_3.stopped,text_4.started,text_4.stopped,text_5.started,text_5.stopped,key_resp_3.keys,key_resp_3.started,key_resp_3.stopped,key_resp_3.rt,text_6.started,text_6.stopped,participant,session,date,expName,psychopyVersion,frameRate,
,,,,,7.727846407011384,None,1,1.6658531940192915,7.727846407011384,None,,,,,,,,,,,,,,,,,,,subj027,001,2023_Apr_01_1404,item,3.2.3,60.09328966964799,
,,,,,,,,,,,9.410702285007574,None,5,17.00615851400653,9.410702285007574,None,,,,,,,,,,,,,subj027,001,2023_Apr_01_1404,item,3.2.3,60.09328966964799,
knight,0,0,0,38,,,,,,,,,,,,,27.445544237998547,None,26.461528490006458,27.462343093007803,32.44458060298348,None,None,32.44458060298348,None,,,,subj027,001,2023_Apr_01_1404,item,3.2.3,60.09328966964799,
chipmunk,0,1,1,26,,,,,,,,,,,,,38.445306826994056,37.444140207982855,37.444140207982855,38.445306826994056,43.44503251998685,37.444140207982855,None,43.44503251998685,37.444140207982855,,,,subj027,001,2023_Apr_01_1404,item,3.2.3,60.09328966964799,
donkey,0,2,2,23,,,,,,,,,,,,,49.42822593799792,48.445127134007635,48.445127134007635,49.44533829001011,54.42850025399821,48.445127134007635,None,54.42850025399821,48.445127134007635,,,,subj027,001,2023_Apr_01_1404,item,3.2.3,60.09328966964799,
swan,0,3,3,29,,,,,,,,,,,,,60.411627360997954,59.427619638998294,59.427619638998294,60.42853114998434,65.4116950329917,59.427619638998294,None,65.4116950329917,59.427619638998294,,,,subj027,001,2023_Apr_01_1404,item,3.2.3,60.09328966964799,
bulldozer,0,4,4,17,,,,,,,,,,,,,71.41215287998784,70.4111131359823,70.4111131359823,71.41215287998784,76.41138797000167,81.41147854499286,None,76.41138797000167,81.41147854499286,,,,subj027,001,2023_Apr_01_1404,item,3.2.3,60.09328966964799,
fingerprint,0,5,5,11,,,,,,,,,,,,,82.41113226499874,81.42827776499325,81.42827776499325,82.42831444100011,87.41149442899041,None,None,87.41149442899041,None,,,,subj027,001,2023_Apr_01_1404,item,3.2.3,60.09328966964799,
ladybug,0,6,6,30,,,,,,,,,,,,,93.39448793701013,92.41081593700801,92.41081593700801,93.41079887098749,98.39410695200786,92.41081593700801,None,98.39410695200786,92.41081593700801,,,,subj027,001,2023_Apr_01_1404,item,3.2.3,60.09328966964799,
coyote,0,7,7,27,,,,,,,,,,,,,104.37794899998698,103.39478251899709,103.39478251899709,104.39414566601044,109.3778750670026,103.39478251899709,None,109.3778750670026,103.39478251899709,,,,subj027,001,2023_Apr_01_1404,item,3.2.3,60.09328966964799,
scalpel,0,8,8,19,,,,,,,,,,,,,115.36122505998355,114.37735971898655,114.37735971898655,115.37752107199049,120.36121166899102,114.37735971898655,None,120.36121166899102,114.37735971898655,,,,subj027,001,2023_Apr_01_1404,item,3.2.3,60.09328966964799,
leopard,0,9,9,24,,,,,,,,,,,,,126.34495898298337,136.34589094400872,125.36092400900088,126.36091978198965,131.34559175098548,125.36092400900088,None,131.34559175098548,125.36092400900088,,,,subj027,001,2023_Apr_01_1404,item,3.2.3,60.09328966964799,
porcupine,0,10,10,22,,,,,,,,,,,,,137.36096396500943,None,136.36115947499638,137.36096396500943,142.36103242798708,136.36115947499638,None,142.36103242798708,136.36115947499638,,,,subj027,001,2023_Apr_01_1404,item,3.2.3,60.09328966964799,
umbrella,0,11,11,5,,,,,,,,,,,,,148.345407744986,147.3608555769897,147.3608555769897,148.3623654319963,153.3455877790111,147.3608555769897,None,153.3455877790111,147.3608555769897,,,,subj027,001,2023_Apr_01_1404,item,3.2.3,60.09328966964799,
axe,0,12,12,0,,,,,,,,,,,,,159.32887561898679,158.34478050799225,158.34478050799225,159.3456137199828,164.32869156400557,158.34478050799225,None,164.32869156400557,158.34478050799225,,,,subj027,001,2023_Apr_01_1404,item,3.2.3,60.09328966964799,
keyboard,0,13,13,15,,,,,,,,,,,,,170.31195870001102,169.32808810498682,169.32808810498682,170.32871657700161,175.31199429699336,169.32808810498682,None,175.31199429699336,169.32808810498682,,,,subj027,001,2023_Apr_01_1404,item,3.2.3,60.09328966964799,
stove,0,14,14,13,,,,,,,,,,,,,181.2952722290065,180.31141316200956,180.31141316200956,181.3115467799944,186.29528165698866,180.31141316200956,None,186.29528165698866,180.31141316200956,,,,subj027,001,2023_Apr_01_1404,item,3.2.3,60.09328966964799,
elephant,0,15,15,21,,,,,,,,,,,,,192.27858874600497,191.29465941799572,191.29465941799572,192.2949961689883,197.27801934001036,191.29465941799572,1,197.27801934001036,191.29465941799572,2.6718200810137205,,,subj027,001,2023_Apr_01_1404,item,3.2.3,60.09328966964799,
grandfather,0,16,16,34,,,,,,,,,,,,,203.26297913398594,202.27901299999212,202.27901299999212,203.27819356700638,208.26309472799767,202.27901299999212,None,208.26309472799767,202.27901299999212,,,,subj027,001,2023_Apr_01_1404,item,3.2.3,60.09328966964799,
hummingbird,0,17,17,28,,,,,,,,,,,,,214.26251229998888,213.2622302719974,213.2622302719974,214.26251229998888,219.2626505419903,213.2622302719974,None,219.2626505419903,213.2622302719974,,,,subj027,001,2023_Apr_01_1404,item,3.2.3,60.09328966964799,
violinist,0,18,18,39,,,,,,,,,,,,,225.2448588059924,224.262423098,224.262423098,225.26265838299878,230.2458760550071,224.262423098,None,230.2458760550071,224.262423098,,,,subj027,001,2023_Apr_01_1404,item,3.2.3,60.09328966964799,
snowball,0,19,19,14,,,,,,,,,,,,,236.22865953898872,235.2456996240071,235.2456996240071,236.2460164699878,241.22924302899628,235.2456996240071,None,241.22924302899628,235.2456996240071,,,,subj027,001,2023_Apr_01_1404,item,3.2.3,60.09328966964799,
passport,0,20,20,4,,,,,,,,,,,,,247.21219580399338,246.22915198898409,246.22915198898409,247.22910909701022,252.21176768900477,246.22915198898409,None,252.21176768900477,246.22915198898409,,,,subj027,001,2023_Apr_01_1404,item,3.2.3,60.09328966964799,
treadmill,0,21,21,16,,,,,,,,,,,,,258.19558237699675,257.2116210309905,257.2116210309905,258.21196383898496,263.1952130990103,257.2116210309905,None,263.1952130990103,257.2116210309905,,,,subj027,001,2023_Apr_01_1404,item,3.2.3,60.09328966964799,
hair,0,22,22,8,,,,,,,,,,,,,269.17878494999604,268.1952022140031,268.1952022140031,269.19514975199127,274.1785416500061,268.1952022140031,None,274.1785416500061,268.1952022140031,,,,subj027,001,2023_Apr_01_1404,item,3.2.3,60.09328966964799,
microscope,0,23,23,6,,,,,,,,,,,,,280.16331648500636,279.17964332699194,279.17964332699194,280.1784682419966,285.1628267529886,279.17964332699194,None,285.1628267529886,279.17964332699194,,,,subj027,001,2023_Apr_01_1404,item,3.2.3,60.09328966964799,
cheesecake,0,24,24,7,,,,,,,,,,,,,291.14592740900116,290.1626820930105,290.1626820930105,291.162920932984,296.14612338898587,290.1626820930105,None,296.14612338898587,290.1626820930105,,,,subj027,001,2023_Apr_01_1404,item,3.2.3,60.09328966964799,
cabdriver,0,25,25,36,,,,,,,,,,,,,302.1292826529825,301.1450357059948,301.1450357059948,302.1453355450067,307.12936931700096,301.1450357059948,None,307.12936931700096,301.1450357059948,,,,subj027,001,2023_Apr_01_1404,item,3.2.3,60.09328966964799,
cheerleader,0,26,26,32,,,,,,,,,,,,,313.11263575198245,312.12945504899835,312.12945504899835,313.12944302899996,318.11263404999045,312.12945504899835,None,318.11263404999045,312.12945504899835,,,,subj027,001,2023_Apr_01_1404,item,3.2.3,60.09328966964799,
necklace,0,27,27,12,,,,,,,,,,,,,324.09565951800323,323.1119757090055,323.1119757090055,324.11203904199647,329.0955986790068,323.1119757090055,None,329.0955986790068,323.1119757090055,,,,subj027,001,2023_Apr_01_1404,item,3.2.3,60.09328966964799,
walrus,0,28,28,25,,,,,,,,,,,,,335.0790292620077,334.09600219500135,334.09600219500135,335.0953556839959,340.09156319199246,334.09600219500135,None,340.09156319199246,334.09600219500135,,,,subj027,001,2023_Apr_01_1404,item,3.2.3,60.09328966964799,
seahorse,0,29,29,33,,,,,,,,,,,,,346.07524361799005,345.0914147720032,345.0914147720032,346.09162165998714,351.0747681359935,345.0914147720032,None,351.0747681359935,345.0914147720032,,,,subj027,001,2023_Apr_01_1404,item,3.2.3,60.09328966964799,
ketchup,0,30,30,2,,,,,,,,,,,,,357.0580189980101,356.07482979199267,356.07482979199267,357.07475182399503,362.05812572001014,356.07482979199267,None,362.05812572001014,356.07482979199267,,,,subj027,001,2023_Apr_01_1404,item,3.2.3,60.09328966964799,
platypus,0,31,31,35,,,,,,,,,,,,,368.0413406699954,367.05781615999877,367.05781615999877,368.05815962699126,373.0462881659914,367.05781615999877,None,373.0462881659914,367.05781615999877,,,,subj027,001,2023_Apr_01_1404,item,3.2.3,60.09328966964799,
binoculars,0,32,32,1,,,,,,,,,,,,,379.0414235559874,378.0460704950092,378.0460704950092,379.05776957198395,384.02967884799,378.0460704950092,None,384.02967884799,378.0460704950092,,,,subj027,001,2023_Apr_01_1404,item,3.2.3,60.09328966964799,
camera,0,33,33,3,,,,,,,,,,,,,390.0289617399976,389.0409532430058,389.0409532430058,390.04575547299464,395.02903961599804,389.0409532430058,None,395.02903961599804,389.0409532430058,,,,subj027,001,2023_Apr_01_1404,item,3.2.3,60.09328966964799,
hairstylist,0,34,34,37,,,,,,,,,,,,,401.0291220759973,400.0402911659912,400.0402911659912,401.04584706699825,406.0292306019983,400.0402911659912,None,406.0292306019983,400.0402911659912,,,,subj027,001,2023_Apr_01_1404,item,3.2.3,60.09328966964799,
airplane,0,35,35,9,,,,,,,,,,,,,412.02432535399566,411.0405404290068,411.0405404290068,412.0288382789877,417.02454914100235,411.0405404290068,None,417.02454914100235,411.0405404290068,,,,subj027,001,2023_Apr_01_1404,item,3.2.3,60.09328966964799,
mirror,0,36,36,10,,,,,,,,,,,,,423.01298729798873,422.0287467309972,422.0287467309972,423.02977293299045,428.0130305729981,422.0287467309972,None,428.0130305729981,422.0287467309972,,,,subj027,001,2023_Apr_01_1404,item,3.2.3,60.09328966964799,
waterfall,0,37,37,18,,,,,,,,,,,,,434.01337221398717,433.02396147398395,433.02396147398395,434.02984625298996,439.0134007729939,433.02396147398395,None,439.0134007729939,433.02396147398395,,,,subj027,001,2023_Apr_01_1404,item,3.2.3,60.09328966964799,
crab,0,38,38,31,,,,,,,,,,,,,444.9964860699838,444.0236787860049,444.0236787860049,445.0296867209836,449.9965480979881,444.0236787860049,None,449.9965480979881,444.0236787860049,,,,subj027,001,2023_Apr_01_1404,item,3.2.3,60.09328966964799,
baby,0,39,39,20,,,,,,,,,,,,,455.9798441469902,454.99581767598283,454.99581767598283,455.99584477598546,460.9902297820081,454.99581767598283,None,460.9902297820081,454.99581767598283,,,,subj027,001,2023_Apr_01_1404,item,3.2.3,60.09328966964799,
,,,,,,,,,,,,,,,,,,,,,,,,,,,465.99637301499024,None,,,,,,,
