Word,trials.thisRepN,trials.thisTrialN,trials.thisN,trials.thisIndex,text.started,text.stopped,key_resp.keys,key_resp.rt,key_resp.started,key_resp.stopped,text_2.started,text_2.stopped,key_resp_2.keys,key_resp_2.rt,key_resp_2.started,key_resp_2.stopped,text_3.started,text_3.stopped,text_4.started,text_4.stopped,text_5.started,text_5.stopped,key_resp_3.keys,key_resp_3.rt,key_resp_3.started,key_resp_3.stopped,text_6.started,text_6.stopped,participant,session,date,expName,psychopyVersion,frameRate,
,,,,,7.837630704998446,None,1,7.635585773998173,7.837630704998446,None,,,,,,,,,,,,,,,,,,,subj007,002,2022_Apr_12_1715,item,3.2.3,60.23916865523515,
,,,,,,,,,,,15.503782332998526,None,5,17.750556248000066,15.503782332998526,None,,,,,,,,,,,,,subj007,002,2022_Apr_12_1715,item,3.2.3,60.23916865523515,
snowball,0,0,0,14,,,,,,,,,,,,,34.27151564000087,None,33.27853003999917,34.288355116001185,39.27094816400131,None,2,1.6424304680003843,39.27094816400131,None,,,subj007,002,2022_Apr_12_1715,item,3.2.3,60.23916865523515,
umbrella,0,1,1,5,,,,,,,,,,,,,45.27867153400075,None,44.27921715499906,45.29645150400029,50.27179756899932,55.279115902998456,2,1.1394791649981926,50.27179756899932,55.279115902998456,,,subj007,002,2022_Apr_12_1715,item,3.2.3,60.23916865523515,
grandfather,0,2,2,34,,,,,,,,,,,,,56.2883010000005,None,55.296036491999985,56.30419656199956,61.271354936001444,66.27126280100128,1,1.433924819000822,61.271354936001444,66.27126280100128,,,subj007,002,2022_Apr_12_1715,item,3.2.3,60.23916865523515,
violinist,0,3,3,39,,,,,,,,,,,,,67.27939345200139,None,66.28715738499886,67.2961397049985,72.27148817800116,77.27164080399962,1,0.7589455389970681,72.27148817800116,77.27164080399962,,,subj007,002,2022_Apr_12_1715,item,3.2.3,60.23916865523515,
porcupine,0,4,4,22,,,,,,,,,,,,,78.2877610229989,None,77.28754844899959,78.2877610229989,83.27102042700062,None,1,1.0954013810005563,83.27102042700062,None,,,subj007,002,2022_Apr_12_1715,item,3.2.3,60.23916865523515,
baby,0,5,5,20,,,,,,,,,,,,,89.27117429999998,None,88.27896419600074,89.27117429999998,94.27118967999922,None,1,0.5580912980003632,94.27118967999922,None,,,subj007,002,2022_Apr_12_1715,item,3.2.3,60.23916865523515,
waterfall,0,6,6,18,,,,,,,,,,,,,100.2552653269995,None,99.27822829599972,100.29515059500045,105.25527188599881,None,2,1.6889729300019098,105.25527188599881,None,,,subj007,002,2022_Apr_12_1715,item,3.2.3,60.23916865523515,
leopard,0,7,7,24,,,,,,,,,,,,,111.24565986000016,110.26205721699807,110.26205721699807,111.2547848260001,116.2386390319989,110.26205721699807,1,0.5117640669996035,116.2386390319989,110.26205721699807,,,subj007,002,2022_Apr_12_1715,item,3.2.3,60.23916865523515,
mirror,0,8,8,10,,,,,,,,,,,,,122.222015465999,132.22177087399905,121.24512336499902,122.26190528699954,127.23838719500054,121.24512336499902,2,0.5198352799998247,127.23838719500054,121.24512336499902,,,subj007,002,2022_Apr_12_1715,item,3.2.3,60.23916865523515,
keyboard,0,9,9,15,,,,,,,,,,,,,133.22843723999904,None,132.24514072300008,133.23849725000036,138.22179242899801,143.22143821099962,2,2.066568786998687,138.22179242899801,143.22143821099962,,,subj007,002,2022_Apr_12_1715,item,3.2.3,60.23916865523515,
ladybug,0,10,10,30,,,,,,,,,,,,,144.2219100379989,143.24483011399934,143.24483011399934,144.25467315900096,149.22860100599792,None,1,0.5218080170016037,149.22860100599792,None,,,subj007,002,2022_Apr_12_1715,item,3.2.3,60.23916865523515,
platypus,0,11,11,35,,,,,,,,,,,,,155.20519852600046,165.20443950299887,154.22803749200102,155.23873810700024,160.22125437299837,154.22803749200102,1,1.464981668999826,160.22125437299837,154.22803749200102,,,subj007,002,2022_Apr_12_1715,item,3.2.3,60.23916865523515,
cabdriver,0,12,12,36,,,,,,,,,,,,,166.2054303119985,None,165.22212028500144,166.22216520700022,171.20543040899793,165.22212028500144,1,0.64082830299958,171.20543040899793,165.22212028500144,,,subj007,002,2022_Apr_12_1715,item,3.2.3,60.23916865523515,
hummingbird,0,13,13,28,,,,,,,,,,,,,177.21146413599854,176.21091280900146,176.21091280900146,177.22768133899808,182.1947733119996,187.19409997099865,1,1.361651683000673,182.1947733119996,187.19409997099865,,,subj007,002,2022_Apr_12_1715,item,3.2.3,60.23916865523515,
donkey,0,14,14,23,,,,,,,,,,,,,188.2109470309988,187.21118333100094,187.21118333100094,188.22212939499877,193.20533625900134,None,1,1.2300795599985577,193.20533625900134,None,,,subj007,002,2022_Apr_12_1715,item,3.2.3,60.23916865523515,
crab,0,15,15,31,,,,,,,,,,,,,199.1942511599991,198.2047045219988,198.2047045219988,199.20542106599896,204.20468965599866,198.2047045219988,1,0.7026705379976192,204.20468965599866,198.2047045219988,,,subj007,002,2022_Apr_12_1715,item,3.2.3,60.23916865523515,
treadmill,0,16,16,16,,,,,,,,,,,,,210.18881060700005,209.20491245599987,209.20491245599987,210.2056155479986,215.18891780899867,209.20491245599987,2,1.1893286230006197,215.18891780899867,209.20491245599987,,,subj007,002,2022_Apr_12_1715,item,3.2.3,60.23916865523515,
knight,0,17,17,38,,,,,,,,,,,,,221.1889858530012,220.19415513499916,220.19415513499916,221.1889858530012,226.1722466249994,231.17135827200036,1,1.3631336859980365,226.1722466249994,231.17135827200036,,,subj007,002,2022_Apr_12_1715,item,3.2.3,60.23916865523515,
passport,0,18,18,4,,,,,,,,,,,,,232.17152124999848,231.1885766480009,231.1885766480009,232.1887155129989,237.1720218320006,None,2,1.896390388999862,237.1720218320006,None,,,subj007,002,2022_Apr_12_1715,item,3.2.3,60.23916865523515,
stove,0,19,19,13,,,,,,,,,,,,,243.1598104730001,242.1713283370009,242.1713283370009,243.17202925200036,248.15989621900007,242.1713283370009,2,1.0984666329968604,248.15989621900007,242.1713283370009,,,subj007,002,2022_Apr_12_1715,item,3.2.3,60.23916865523515,
fingerprint,0,20,20,11,,,,,,,,,,,,,254.15505079300056,264.15965967599914,253.17133421900144,254.171476487998,259.1596816050005,253.17133421900144,2,1.8737143799990008,259.1596816050005,253.17133421900144,,,subj007,002,2022_Apr_12_1715,item,3.2.3,60.23916865523515,
swan,0,21,21,29,,,,,,,,,,,,,265.15571862100114,None,264.1767657329983,265.19323556200106,270.1597663149987,264.1767657329983,1,1.3984433280020312,270.1597663149987,264.1767657329983,,,subj007,002,2022_Apr_12_1715,item,3.2.3,60.23916865523515,
seahorse,0,22,22,33,,,,,,,,,,,,,276.14303510600075,275.1548848040002,275.1548848040002,276.15983568500087,281.1430781989984,275.1548848040002,1,1.9043408229990746,281.1430781989984,275.1548848040002,,,subj007,002,2022_Apr_12_1715,item,3.2.3,60.23916865523515,
coyote,0,23,23,27,,,,,,,,,,,,,287.1554765990004,286.1592999489985,286.1592999489985,287.1722116210003,292.14331378299903,297.14329643399833,1,0.5340640989998064,292.14331378299903,297.14329643399833,,,subj007,002,2022_Apr_12_1715,item,3.2.3,60.23916865523515,
ketchup,0,24,24,2,,,,,,,,,,,,,298.1428161820004,297.1553951909991,297.1553951909991,298.1556340790012,303.14299340100115,None,2,1.0663653110023006,303.14299340100115,None,,,subj007,002,2022_Apr_12_1715,item,3.2.3,60.23916865523515,
chipmunk,0,25,25,26,,,,,,,,,,,,,309.13894532999984,308.15982866299964,308.15982866299964,309.1766601650015,314.1390677240015,308.15982866299964,1,1.0763204750001023,314.1390677240015,308.15982866299964,,,subj007,002,2022_Apr_12_1715,item,3.2.3,60.23916865523515,
cheesecake,0,26,26,7,,,,,,,,,,,,,320.1222891030011,330.1224447809982,319.13798366300034,320.1391223259998,325.13841168699946,319.13798366300034,2,0.4648298630017962,325.13841168699946,319.13798366300034,,,subj007,002,2022_Apr_12_1715,item,3.2.3,60.23916865523515,
hair,0,27,27,8,,,,,,,,,,,,,331.12558024199825,None,330.1423003529999,331.13890011200056,336.1225499130014,341.121835457001,1,0.7958264219996636,336.1225499130014,341.121835457001,,,subj007,002,2022_Apr_12_1715,item,3.2.3,60.23916865523515,
bulldozer,0,28,28,17,,,,,,,,,,,,,342.12571677699816,341.14216979699995,341.14216979699995,342.13905282799897,347.12588913500076,None,2,1.2273807540004782,347.12588913500076,None,,,subj007,002,2022_Apr_12_1715,item,3.2.3,60.23916865523515,
airplane,0,29,29,9,,,,,,,,,,,,,353.1223365650003,352.1389288930004,352.1389288930004,353.13917881499947,358.122425911999,352.1389288930004,2,0.5468787440004235,358.122425911999,352.1389288930004,,,subj007,002,2022_Apr_12_1715,item,3.2.3,60.23916865523515,
elephant,0,30,30,21,,,,,,,,,,,,,364.1056986279982,363.1221927049992,363.1221927049992,364.1257219020008,369.1048484390012,363.1221927049992,1,0.9135412590003398,369.1048484390012,363.1221927049992,,,subj007,002,2022_Apr_12_1715,item,3.2.3,60.23916865523515,
camera,0,31,31,3,,,,,,,,,,,,,375.0890631639995,374.10502179499963,374.10502179499963,375.10589488999904,380.08915234600136,374.10502179499963,2,0.3282309759997588,380.08915234600136,374.10502179499963,,,subj007,002,2022_Apr_12_1715,item,3.2.3,60.23916865523515,
binoculars,0,32,32,1,,,,,,,,,,,,,386.0723497299987,385.08905975200105,385.08905975200105,386.0884813650009,391.0723967660015,385.08905975200105,2,0.8779863839990867,391.0723967660015,385.08905975200105,,,subj007,002,2022_Apr_12_1715,item,3.2.3,60.23916865523515,
walrus,0,33,33,25,,,,,,,,,,,,,397.0554181660009,396.0717794529992,396.0717794529992,397.0718397210003,402.05578442800106,396.0717794529992,1,0.9665081759994791,402.05578442800106,396.0717794529992,,,subj007,002,2022_Apr_12_1715,item,3.2.3,60.23916865523515,
necklace,0,34,34,12,,,,,,,,,,,,,408.03909927399945,407.05594014500093,407.05594014500093,408.0551520359986,413.0382180839988,407.05594014500093,2,0.5211516870003834,413.0382180839988,407.05594014500093,,,subj007,002,2022_Apr_12_1715,item,3.2.3,60.23916865523515,
hairstylist,0,35,35,37,,,,,,,,,,,,,419.02250005599853,418.03848315899813,418.03848315899813,419.0392805929987,424.0216312140001,418.03848315899813,1,0.4507139580018702,424.0216312140001,418.03848315899813,,,subj007,002,2022_Apr_12_1715,item,3.2.3,60.23916865523515,
cheerleader,0,36,36,32,,,,,,,,,,,,,430.00587319199985,429.0226666189992,429.0226666189992,430.0226913939987,435.00520805199994,429.0226666189992,1,1.1231871090021741,435.00520805199994,429.0226666189992,,,subj007,002,2022_Apr_12_1715,item,3.2.3,60.23916865523515,
scalpel,0,37,37,19,,,,,,,,,,,,,440.9891193250005,440.00596119200054,440.00596119200054,441.0060387880003,445.9892793350009,440.00596119200054,2,0.3360578300016641,445.9892793350009,440.00596119200054,,,subj007,002,2022_Apr_12_1715,item,3.2.3,60.23916865523515,
axe,0,38,38,0,,,,,,,,,,,,,451.9725513209996,450.98846532099924,450.98846532099924,451.9884183770009,456.97182318200066,450.98846532099924,2,0.3235765499994159,456.97182318200066,450.98846532099924,,,subj007,002,2022_Apr_12_1715,item,3.2.3,60.23916865523515,
microscope,0,39,39,6,,,,,,,,,,,,,462.9554252829985,461.9727598030004,461.9727598030004,462.9727558049999,467.9552496969991,461.9727598030004,2,1.115986200999032,467.9552496969991,461.9727598030004,,,subj007,002,2022_Apr_12_1715,item,3.2.3,60.23916865523515,
,,,,,,,,,,,,,,,,,,,,,,,,,,,472.955975795001,None,,,,,,,
