Word,trials.thisRepN,trials.thisTrialN,trials.thisN,trials.thisIndex,text.started,text.stopped,key_resp.keys,key_resp.rt,key_resp.started,key_resp.stopped,text_2.started,text_2.stopped,key_resp_2.keys,key_resp_2.rt,key_resp_2.started,key_resp_2.stopped,text_3.started,text_3.stopped,text_4.started,text_4.stopped,text_5.started,text_5.stopped,key_resp_3.keys,key_resp_3.rt,key_resp_3.started,key_resp_3.stopped,text_6.started,text_6.stopped,participant,session,date,expName,psychopyVersion,frameRate,
,,,,,7.782023501997173,None,1,68.15509745900272,7.782023501997173,None,,,,,,,,,,,,,,,,,,,subj008,001,2022_Mar_27_1759,item,3.2.3,60.20612083153395,
,,,,,,,,,,,75.95668138599649,None,5,35.480409081999824,75.95668138599649,None,,,,,,,,,,,,,subj008,001,2022_Mar_27_1759,item,3.2.3,60.20612083153395,
umbrella,0,0,0,5,,,,,,,,,,,,,112.46550550699976,122.46565838899915,111.47150617399893,112.48224780399687,117.48077630499756,None,2,2.0852544410008704,117.48077630499756,None,,,subj008,001,2022_Mar_27_1759,item,3.2.3,60.20612083153395,
cheerleader,0,1,1,32,,,,,,,,,,,,,123.48278846999892,None,122.48242217699953,123.48278846999892,128.47269229299854,None,1,0.8954407759993046,128.47269229299854,None,,,subj008,001,2022_Mar_27_1759,item,3.2.3,60.20612083153395,
platypus,0,2,2,35,,,,,,,,,,,,,134.48287370599792,None,133.48910705699745,134.49941558599676,139.47239342699686,None,1,0.7087118640010885,139.47239342699686,None,,,subj008,001,2022_Mar_27_1759,item,3.2.3,60.20612083153395,
baby,0,3,3,20,,,,,,,,,,,,,145.466281058998,None,144.4724524639969,145.4888164699987,150.4663581349996,None,1,0.6838129719981225,150.4663581349996,None,,,subj008,001,2022_Mar_27_1759,item,3.2.3,60.20612083153395,
cabdriver,0,4,4,36,,,,,,,,,,,,,156.46608209199985,None,155.47186115599834,156.48290018499756,161.46571577899886,None,1,0.7394102319995,161.46571577899886,None,,,subj008,001,2022_Mar_27_1759,item,3.2.3,60.20612083153395,
passport,0,5,5,4,,,,,,,,,,,,,167.44939310299742,177.44957943999907,166.47209595899767,167.48295173799852,172.4663744679965,None,2,0.5757434410006681,172.4663744679965,None,,,subj008,001,2022_Mar_27_1759,item,3.2.3,60.20612083153395,
crab,0,6,6,31,,,,,,,,,,,,,178.44957760399848,188.44975322299797,177.46635166399938,178.47161086399865,183.45486834399708,177.46635166399938,1,0.6602502349996939,183.45486834399708,177.46635166399938,,,subj008,001,2022_Mar_27_1759,item,3.2.3,60.20612083153395,
stove,0,7,7,13,,,,,,,,,,,,,189.45491342499736,None,188.46600114600005,189.47173993499746,194.44901346799816,188.46600114600005,2,0.6901234940014547,194.44901346799816,188.46600114600005,,,subj008,001,2022_Mar_27_1759,item,3.2.3,60.20612083153395,
leopard,0,8,8,24,,,,,,,,,,,,,200.4551920699996,199.45440982699802,199.45440982699802,200.46630396399996,205.4383637259998,210.44874311499734,1,1.6497720400002436,205.4383637259998,210.44874311499734,,,subj008,001,2022_Mar_27_1759,item,3.2.3,60.20612083153395,
necklace,0,9,9,12,,,,,,,,,,,,,211.44959597999696,210.46530779099703,210.46530779099703,211.4663815089989,216.44888899299985,None,2,0.6392217760003405,216.44888899299985,None,,,subj008,001,2022_Mar_27_1759,item,3.2.3,60.20612083153395,
hummingbird,0,10,10,28,,,,,,,,,,,,,222.43295038199722,221.4491732539973,221.4491732539973,222.44984661999843,227.4330412269992,221.4491732539973,1,0.5761267070010945,227.4330412269992,221.4491732539973,,,subj008,001,2022_Mar_27_1759,item,3.2.3,60.20612083153395,
camera,0,11,11,3,,,,,,,,,,,,,233.4163487529986,232.4331490379991,232.4331490379991,233.4331257949998,238.415596912997,232.4331490379991,2,0.6925524069993116,238.415596912997,232.4331490379991,,,subj008,001,2022_Mar_27_1759,item,3.2.3,60.20612083153395,
swan,0,12,12,29,,,,,,,,,,,,,244.39895934499873,243.41649399299786,243.41649399299786,244.41568990799715,249.39979598199716,243.41649399299786,1,0.8212087300016719,249.39979598199716,243.41649399299786,,,subj008,001,2022_Mar_27_1759,item,3.2.3,60.20612083153395,
donkey,0,13,13,23,,,,,,,,,,,,,255.38299440099945,254.4039307769999,254.4039307769999,255.41632600199955,260.38309914099955,254.4039307769999,1,0.8339153819979401,260.38309914099955,254.4039307769999,,,subj008,001,2022_Mar_27_1759,item,3.2.3,60.20612083153395,
chipmunk,0,14,14,26,,,,,,,,,,,,,266.3832078209998,265.38714755399997,265.38714755399997,266.399470553999,271.38324311799806,265.38714755399997,1,0.7268658080029127,271.38324311799806,265.38714755399997,,,subj008,001,2022_Mar_27_1759,item,3.2.3,60.20612083153395,
treadmill,0,15,15,16,,,,,,,,,,,,,277.3665393579977,276.38752777899936,276.38752777899936,277.40392160099873,282.36657507999917,276.38752777899936,2,1.056413791000523,282.36657507999917,276.38752777899936,,,subj008,001,2022_Mar_27_1759,item,3.2.3,60.20612083153395,
snowball,0,16,16,14,,,,,,,,,,,,,288.35391117999825,287.37001933099964,287.37001933099964,288.37072863999856,293.34913625899935,298.3496086919986,2,0.8370034859981388,293.34913625899935,298.3496086919986,,,subj008,001,2022_Mar_27_1759,item,3.2.3,60.20612083153395,
axe,0,17,17,0,,,,,,,,,,,,,299.34940497799835,298.370407735998,298.370407735998,299.38747350599806,304.3496932459966,None,2,1.2303817179999896,304.3496932459966,None,,,subj008,001,2022_Mar_27_1759,item,3.2.3,60.20612083153395,
keyboard,0,18,18,15,,,,,,,,,,,,,310.33641922499737,309.3495342729984,309.3495342729984,310.3497681189983,315.3360637409969,309.3495342729984,2,1.1900675459983177,315.3360637409969,309.3495342729984,,,subj008,001,2022_Mar_27_1759,item,3.2.3,60.20612083153395,
elephant,0,19,19,21,,,,,,,,,,,,,321.34916866099957,320.3496223289985,320.3496223289985,321.34916866099957,326.33306887599974,331.33246574799705,1,1.6169132929971965,326.33306887599974,331.33246574799705,,,subj008,001,2022_Mar_27_1759,item,3.2.3,60.20612083153395,
ketchup,0,20,20,2,,,,,,,,,,,,,332.33330443499653,331.34929213099895,331.34929213099895,332.3496436789974,337.3334074919985,None,None,,337.3334074919985,None,,,subj008,001,2022_Mar_27_1759,item,3.2.3,60.20612083153395,
ladybug,0,21,21,30,,,,,,,,,,,,,343.31671224699676,342.3331010389993,342.3331010389993,343.33315944399874,348.3167765839971,342.3331010389993,1,0.809238791000098,348.3167765839971,342.3331010389993,,,subj008,001,2022_Mar_27_1759,item,3.2.3,60.20612083153395,
fingerprint,0,22,22,11,,,,,,,,,,,,,354.30305329399926,353.31569588599814,353.31569588599814,354.31672298099875,359.31636193099985,353.31569588599814,2,1.1646221199989668,359.31636193099985,353.31569588599814,,,subj008,001,2022_Mar_27_1759,item,3.2.3,60.20612083153395,
walrus,0,23,23,25,,,,,,,,,,,,,365.29937620799683,364.31654662699657,364.31654662699657,365.3165880279994,370.29948043999684,364.31654662699657,1,1.0236513150011888,370.29948043999684,364.31654662699657,,,subj008,001,2022_Mar_27_1759,item,3.2.3,60.20612083153395,
cheesecake,0,24,24,7,,,,,,,,,,,,,376.28272517799996,375.2996589309987,375.2996589309987,376.29977465799675,381.28276877499957,375.2996589309987,2,3.1012328370015894,381.28276877499957,375.2996589309987,,,subj008,001,2022_Mar_27_1759,item,3.2.3,60.20612083153395,
hair,0,25,25,8,,,,,,,,,,,,,387.26591494299646,386.2826643899971,386.2826643899971,387.28286373899755,392.26628375299697,386.2826643899971,1,0.7128366489996552,392.26628375299697,386.2826643899971,,,subj008,001,2022_Mar_27_1759,item,3.2.3,60.20612083153395,
airplane,0,26,26,9,,,,,,,,,,,,,398.2494491519974,397.2661560549968,397.2661560549968,398.26659819499764,403.24946272399757,397.2661560549968,2,0.8456921290016908,403.24946272399757,397.2661560549968,,,subj008,001,2022_Mar_27_1759,item,3.2.3,60.20612083153395,
coyote,0,27,27,27,,,,,,,,,,,,,409.23359621299824,408.24951033899924,408.24951033899924,409.25056068199774,414.2331661229982,408.24951033899924,1,1.056951857997774,414.2331661229982,408.24951033899924,,,subj008,001,2022_Mar_27_1759,item,3.2.3,60.20612083153395,
knight,0,28,28,38,,,,,,,,,,,,,420.2159900239967,419.2332232609988,419.2332232609988,420.2331782959991,425.2162154789985,419.2332232609988,1,1.208894182000222,425.2162154789985,419.2332232609988,,,subj008,001,2022_Mar_27_1759,item,3.2.3,60.20612083153395,
seahorse,0,29,29,33,,,,,,,,,,,,,431.19932422099737,430.2162769129973,430.2162769129973,431.21624165899993,436.20025043999703,430.2162769129973,1,0.9677593069973227,436.20025043999703,430.2162769129973,,,subj008,001,2022_Mar_27_1759,item,3.2.3,60.20612083153395,
violinist,0,30,30,39,,,,,,,,,,,,,442.18278012599694,441.20057572699807,441.20057572699807,442.2160192329975,447.18287442899964,441.20057572699807,1,0.6292598500003805,447.18287442899964,441.20057572699807,,,subj008,001,2022_Mar_27_1759,item,3.2.3,60.20612083153395,
porcupine,0,31,31,22,,,,,,,,,,,,,453.16696886799764,452.1829600159981,452.1829600159981,453.1833141669995,458.1666112089988,452.1829600159981,1,2.6585129349987255,458.1666112089988,452.1829600159981,,,subj008,001,2022_Mar_27_1759,item,3.2.3,60.20612083153395,
hairstylist,0,32,32,37,,,,,,,,,,,,,464.1495174879965,463.1665176889983,463.1665176889983,464.16651729399746,469.1495473569994,463.1665176889983,1,1.4164784770000551,469.1495473569994,463.1665176889983,,,subj008,001,2022_Mar_27_1759,item,3.2.3,60.20612083153395,
mirror,0,33,33,10,,,,,,,,,,,,,475.1328461059966,474.1501620389972,474.1501620389972,475.15016188499794,480.13294315799794,474.1501620389972,2,0.9041478110011667,480.13294315799794,474.1501620389972,,,subj008,001,2022_Mar_27_1759,item,3.2.3,60.20612083153395,
bulldozer,0,34,34,17,,,,,,,,,,,,,486.1334126249967,485.1329881879974,485.1329881879974,486.1334126249967,491.1334479859979,485.1329881879974,2,0.93555336099962,491.1334479859979,485.1329881879974,,,subj008,001,2022_Mar_27_1759,item,3.2.3,60.20612083153395,
waterfall,0,35,35,18,,,,,,,,,,,,,497.11660349599697,496.13250306199916,496.13250306199916,497.13277900299727,502.11664943399956,496.13250306199916,2,1.044480789998488,502.11664943399956,496.13250306199916,,,subj008,001,2022_Mar_27_1759,item,3.2.3,60.20612083153395,
microscope,0,36,36,6,,,,,,,,,,,,,508.10005202499815,507.11587899000006,507.11587899000006,508.1159786859971,513.0996645249979,507.11587899000006,2,1.0714403120000497,513.0996645249979,507.11587899000006,,,subj008,001,2022_Mar_27_1759,item,3.2.3,60.20612083153395,
binoculars,0,37,37,1,,,,,,,,,,,,,519.0830761059988,518.0992616389995,518.0992616389995,519.1001998129977,524.0835224889997,518.0992616389995,2,0.7946214570001757,524.0835224889997,518.0992616389995,,,subj008,001,2022_Mar_27_1759,item,3.2.3,60.20612083153395,
scalpel,0,38,38,19,,,,,,,,,,,,,530.0668365299971,529.0831052839967,529.0831052839967,530.0828403819978,535.0664997039967,529.0831052839967,2,1.1566766230025678,535.0664997039967,529.0831052839967,,,subj008,001,2022_Mar_27_1759,item,3.2.3,60.20612083153395,
grandfather,0,39,39,34,,,,,,,,,,,,,541.0497159199986,540.0826754559967,540.0826754559967,541.0837614939992,546.0502432609974,540.0826754559967,1,1.3027691099996446,546.0502432609974,540.0826754559967,,,subj008,001,2022_Mar_27_1759,item,3.2.3,60.20612083153395,
,,,,,,,,,,,,,,,,,,,,,,,,,,,551.050456175999,None,,,,,,,
