Word,trials.thisRepN,trials.thisTrialN,trials.thisN,trials.thisIndex,text.started,text.stopped,key_resp.keys,key_resp.rt,key_resp.started,key_resp.stopped,text_2.started,text_2.stopped,key_resp_2.keys,key_resp_2.rt,key_resp_2.started,key_resp_2.stopped,text_3.started,text_3.stopped,text_4.started,text_4.stopped,text_5.started,text_5.stopped,key_resp_3.keys,key_resp_3.rt,key_resp_3.started,key_resp_3.stopped,text_6.started,text_6.stopped,participant,session,date,expName,psychopyVersion,frameRate,
,,,,,6.064400474999275,None,1,3.820004240998969,6.064400474999275,None,,,,,,,,,,,,,,,,,,,subj021,001,2022_Nov_08_1725,item,3.2.3,60.24454259987965,
,,,,,,,,,,,9.91514860100142,None,5,17.21342469099909,9.91514860100142,None,,,,,,,,,,,,,subj021,001,2022_Nov_08_1725,item,3.2.3,60.24454259987965,
grandfather,0,0,0,34,,,,,,,,,,,,,28.1483356380013,None,27.165253707000375,28.16623676100062,33.14913395199983,None,1,0.9663806559983641,33.14913395199983,None,,,subj021,001,2022_Nov_08_1725,item,3.2.3,60.24454259987965,
swan,0,1,1,29,,,,,,,,,,,,,39.13238428100158,38.1481701240009,38.1481701240009,39.1491559970018,44.1325821169994,38.1481701240009,1,0.7259699440000986,44.1325821169994,38.1481701240009,,,subj021,001,2022_Nov_08_1725,item,3.2.3,60.24454259987965,
platypus,0,2,2,35,,,,,,,,,,,,,50.115997271001106,49.13207347400021,49.13207347400021,50.13210514300226,55.115184885002236,49.13207347400021,1,1.168200842999795,55.115184885002236,49.13207347400021,,,subj021,001,2022_Nov_08_1725,item,3.2.3,60.24454259987965,
chipmunk,0,3,3,26,,,,,,,,,,,,,61.097793089000334,60.11539069799983,60.11539069799983,61.11430599800224,66.09929399500106,60.11539069799983,1,1.03509007500179,66.09929399500106,60.11539069799983,,,subj021,001,2022_Nov_08_1725,item,3.2.3,60.24454259987965,
airplane,0,4,4,9,,,,,,,,,,,,,72.08252400100173,71.09841172899905,71.09841172899905,72.09866968099959,77.08267850199991,71.09841172899905,2,1.0527223049975873,77.08267850199991,71.09841172899905,,,subj021,001,2022_Nov_08_1725,item,3.2.3,60.24454259987965,
stove,0,5,5,13,,,,,,,,,,,,,83.06596343600177,82.08181205399887,82.08181205399887,83.0819928130004,88.0660772629999,82.08181205399887,2,1.0964914739997766,88.0660772629999,82.08181205399887,,,subj021,001,2022_Nov_08_1725,item,3.2.3,60.24454259987965,
cabdriver,0,6,6,36,,,,,,,,,,,,,94.06537089799895,93.06530114999987,93.06530114999987,94.06537089799895,99.06619054900148,93.06530114999987,1,1.58633489299973,99.06619054900148,93.06530114999987,,,subj021,001,2022_Nov_08_1725,item,3.2.3,60.24454259987965,
axe,0,7,7,0,,,,,,,,,,,,,105.04969976400025,104.06589336199977,104.06589336199977,105.06595310199918,110.04953926800226,104.06589336199977,2,0.9610063860018272,110.04953926800226,104.06589336199977,,,subj021,001,2022_Nov_08_1725,item,3.2.3,60.24454259987965,
knight,0,8,8,38,,,,,,,,,,,,,116.03183718600121,115.04920047600172,115.04920047600172,116.04872885100121,121.03291336999973,115.04920047600172,1,1.0236145630005922,121.03291336999973,115.04920047600172,,,subj021,001,2022_Nov_08_1725,item,3.2.3,60.24454259987965,
porcupine,0,9,9,22,,,,,,,,,,,,,127.01538108200111,126.03307663500163,126.03307663500163,127.03250439600015,132.01623846200164,126.03307663500163,1,1.0913140440025018,132.01623846200164,126.03307663500163,,,subj021,001,2022_Nov_08_1725,item,3.2.3,60.24454259987965,
umbrella,0,10,10,5,,,,,,,,,,,,,137.9987740559991,137.0155594550015,137.0155594550015,138.01554741099972,142.99954152300052,137.0155594550015,2,0.8270030200001202,142.99954152300052,137.0155594550015,,,subj021,001,2022_Nov_08_1725,item,3.2.3,60.24454259987965,
baby,0,11,11,20,,,,,,,,,,,,,148.98210868800015,147.99895434300197,147.99895434300197,148.99894814000072,153.98214181100047,147.99895434300197,1,0.7224128579982789,153.98214181100047,147.99895434300197,,,subj021,001,2022_Nov_08_1725,item,3.2.3,60.24454259987965,
hummingbird,0,12,12,28,,,,,,,,,,,,,159.98262051500205,158.98195458099872,158.98195458099872,159.98262051500205,164.96641019600065,169.96559610199984,1,1.0741214349982329,164.96641019600065,169.96559610199984,,,subj021,001,2022_Nov_08_1725,item,3.2.3,60.24454259987965,
coyote,0,13,13,27,,,,,,,,,,,,,170.9655676370021,169.9823291749999,169.9823291749999,170.98238323600162,175.96600541299995,None,1,0.972571844002232,175.96600541299995,None,,,subj021,001,2022_Nov_08_1725,item,3.2.3,60.24454259987965,
hair,0,14,14,8,,,,,,,,,,,,,181.9490036720017,180.96513618300014,180.96513618300014,181.96617473999868,186.94898405500135,180.96513618300014,2,1.1715541480007232,186.94898405500135,180.96513618300014,,,subj021,001,2022_Nov_08_1725,item,3.2.3,60.24454259987965,
microscope,0,15,15,6,,,,,,,,,,,,,192.93224147400178,191.94920469800127,191.94920469800127,192.9488955199995,197.93230582199976,191.94920469800127,2,0.7632409580000967,197.93230582199976,191.94920469800127,,,subj021,001,2022_Nov_08_1725,item,3.2.3,60.24454259987965,
donkey,0,16,16,23,,,,,,,,,,,,,203.91554725099923,202.93236797099962,202.93236797099962,203.9328024030001,208.91571537100026,202.93236797099962,1,3.3098265059998084,208.91571537100026,202.93236797099962,,,subj021,001,2022_Nov_08_1725,item,3.2.3,60.24454259987965,
scalpel,0,17,17,19,,,,,,,,,,,,,214.89902219099895,213.91583596499913,213.91583596499913,214.91575864300103,219.8995243499994,213.91583596499913,2,0.8290574050006398,219.8995243499994,213.91583596499913,,,subj021,001,2022_Nov_08_1725,item,3.2.3,60.24454259987965,
violinist,0,18,18,39,,,,,,,,,,,,,225.88227183300114,224.89920694900138,224.89920694900138,225.8991574310021,230.88272851299917,224.89920694900138,1,0.7548323449991585,230.88272851299917,224.89920694900138,,,subj021,001,2022_Nov_08_1725,item,3.2.3,60.24454259987965,
camera,0,19,19,3,,,,,,,,,,,,,236.86657513300088,235.8827528010006,235.8827528010006,236.8828968400012,241.8661556879997,235.8827528010006,2,0.8493073589997948,241.8661556879997,235.8827528010006,,,subj021,001,2022_Nov_08_1725,item,3.2.3,60.24454259987965,
binoculars,0,20,20,1,,,,,,,,,,,,,247.8500107789987,246.86592125300012,246.86592125300012,247.86682591499994,252.8495711350006,246.86592125300012,2,0.6279633429985552,252.8495711350006,246.86592125300012,,,subj021,001,2022_Nov_08_1725,item,3.2.3,60.24454259987965,
mirror,0,21,21,10,,,,,,,,,,,,,258.83236137600034,257.84967608100123,257.84967608100123,258.849471128,263.83322457300164,257.84967608100123,2,0.7563525910009048,263.83322457300164,257.84967608100123,,,subj021,001,2022_Nov_08_1725,item,3.2.3,60.24454259987965,
cheesecake,0,22,22,7,,,,,,,,,,,,,269.8157865510002,268.8328916829996,268.8328916829996,269.8329442920003,274.8161415600007,268.8328916829996,2,0.6283267850012635,274.8161415600007,268.8328916829996,,,subj021,001,2022_Nov_08_1725,item,3.2.3,60.24454259987965,
bulldozer,0,23,23,17,,,,,,,,,,,,,280.81614889200137,279.8159326390014,279.8159326390014,280.81614889200137,285.8161678530014,279.8159326390014,2,0.6703644910012372,285.8161678530014,279.8159326390014,,,subj021,001,2022_Nov_08_1725,item,3.2.3,60.24454259987965,
snowball,0,24,24,14,,,,,,,,,,,,,291.7993336340005,290.81555315100195,290.81555315100195,291.81562652700086,296.799610590002,290.81555315100195,2,1.5299856730016472,296.799610590002,290.81555315100195,,,subj021,001,2022_Nov_08_1725,item,3.2.3,60.24454259987965,
ladybug,0,25,25,30,,,,,,,,,,,,,302.7818223180002,301.79874365499927,301.79874365499927,302.79889867699967,307.78191462299947,301.79874365499927,1,1.893646970998816,307.78191462299947,301.79874365499927,,,subj021,001,2022_Nov_08_1725,item,3.2.3,60.24454259987965,
waterfall,0,26,26,18,,,,,,,,,,,,,313.7659968270018,312.78226354599974,312.78226354599974,313.7824091620023,318.76520941200215,312.78226354599974,2,1.1433342089985672,318.76520941200215,312.78226354599974,,,subj021,001,2022_Nov_08_1725,item,3.2.3,60.24454259987965,
seahorse,0,27,27,33,,,,,,,,,,,,,324.74848911400113,323.76532311100163,323.76532311100163,324.7655876739991,329.7487859640023,323.76532311100163,1,0.9807496439971146,329.7487859640023,323.76532311100163,,,subj021,001,2022_Nov_08_1725,item,3.2.3,60.24454259987965,
ketchup,0,28,28,2,,,,,,,,,,,,,335.73195720500007,334.74883554999906,334.74883554999906,335.7487213400018,340.7319600439987,334.74883554999906,2,0.7344839090001187,340.7319600439987,334.74883554999906,,,subj021,001,2022_Nov_08_1725,item,3.2.3,60.24454259987965,
treadmill,0,29,29,16,,,,,,,,,,,,,346.7152096009995,345.7320126779996,345.7320126779996,346.7320379740013,351.71527117799997,345.7320126779996,2,0.6782808749994729,351.71527117799997,345.7320126779996,,,subj021,001,2022_Nov_08_1725,item,3.2.3,60.24454259987965,
hairstylist,0,30,30,37,,,,,,,,,,,,,357.69856992800123,356.7150502930017,356.7150502930017,357.71536112800095,362.6985500359988,356.7150502930017,None,,362.6985500359988,356.7150502930017,,,subj021,001,2022_Nov_08_1725,item,3.2.3,60.24454259987965,
fingerprint,0,31,31,11,,,,,,,,,,,,,368.68183608099935,367.69975796200015,367.69975796200015,368.71570265099945,373.6818869660019,367.69975796200015,2,3.5276596549992973,373.6818869660019,367.69975796200015,,,subj021,001,2022_Nov_08_1725,item,3.2.3,60.24454259987965,
crab,0,32,32,31,,,,,,,,,,,,,379.6663977140015,378.68311303800147,378.68311303800147,379.683220359002,384.66606058400066,378.68311303800147,1,0.6255273110000417,384.66606058400066,378.68311303800147,,,subj021,001,2022_Nov_08_1725,item,3.2.3,60.24454259987965,
passport,0,33,33,4,,,,,,,,,,,,,390.6494665989994,389.6655478649991,389.6655478649991,390.6662711860008,395.64951061600004,389.6655478649991,2,0.7830800160008948,395.64951061600004,389.6655478649991,,,subj021,001,2022_Nov_08_1725,item,3.2.3,60.24454259987965,
walrus,0,34,34,25,,,,,,,,,,,,,401.6328474080001,400.64770211400173,400.64770211400173,401.64954287900036,406.63188863899995,400.64770211400173,1,0.8014718309968885,406.63188863899995,400.64770211400173,,,subj021,001,2022_Nov_08_1725,item,3.2.3,60.24454259987965,
necklace,0,35,35,12,,,,,,,,,,,,,412.6160434859994,411.6322198929993,411.6322198929993,412.63330855499953,417.61609231400143,411.6322198929993,2,1.0093173409986775,417.61609231400143,411.6322198929993,,,subj021,001,2022_Nov_08_1725,item,3.2.3,60.24454259987965,
leopard,0,36,36,24,,,,,,,,,,,,,423.5993993109987,422.615529237999,422.615529237999,423.61580998499994,428.59937676700065,422.615529237999,1,1.3111748209994403,428.59937676700065,422.615529237999,,,subj021,001,2022_Nov_08_1725,item,3.2.3,60.24454259987965,
elephant,0,37,37,21,,,,,,,,,,,,,434.58377089699934,433.59963199400227,433.59963199400227,434.6005046659993,439.5839166850019,433.59963199400227,1,0.777619438002148,439.5839166850019,433.59963199400227,,,subj021,001,2022_Nov_08_1725,item,3.2.3,60.24454259987965,
cheerleader,0,38,38,32,,,,,,,,,,,,,445.583368358999,444.582150647002,444.582150647002,445.583368358999,450.5833505590017,444.582150647002,1,1.2302279409996117,450.5833505590017,444.582150647002,,,subj021,001,2022_Nov_08_1725,item,3.2.3,60.24454259987965,
keyboard,0,39,39,15,,,,,,,,,,,,,456.56658459200116,455.5823913439999,455.5823913439999,456.5835134400004,461.5667188789994,455.5823913439999,2,1.0056736660008028,461.5667188789994,455.5823913439999,,,subj021,001,2022_Nov_08_1725,item,3.2.3,60.24454259987965,
,,,,,,,,,,,,,,,,,,,,,,,,,,,466.56674967300205,None,,,,,,,
