Word,trials.thisRepN,trials.thisTrialN,trials.thisN,trials.thisIndex,text.started,text.stopped,key_resp.keys,key_resp.rt,key_resp.started,key_resp.stopped,text_2.started,text_2.stopped,key_resp_2.keys,key_resp_2.rt,key_resp_2.started,key_resp_2.stopped,text_3.started,text_3.stopped,text_4.started,text_4.stopped,text_5.started,text_5.stopped,key_resp_3.keys,key_resp_3.rt,key_resp_3.started,key_resp_3.stopped,text_6.started,text_6.stopped,participant,session,date,expName,psychopyVersion,frameRate,
,,,,,7.053844126989134,None,1,3.8836665770068066,7.053844126989134,None,,,,,,,,,,,,,,,,,,,subj024,001,2023_Feb_04_1620,item,3.2.3,60.08111335027736,
,,,,,,,,,,,10.970986588989035,None,5,19.52358081600687,10.970986588989035,None,,,,,,,,,,,,,subj024,001,2023_Feb_04_1620,item,3.2.3,60.08111335027736,
passport,0,0,0,4,,,,,,,,,,,,,31.526246686989907,None,30.538145106998854,31.543089979997603,36.52525981499639,None,2,4.1132973409985425,36.52525981499639,None,,,subj024,001,2023_Feb_04_1620,item,3.2.3,60.08111335027736,
platypus,0,1,1,35,,,,,,,,,,,,,42.50913357399986,52.52139279300172,41.52551515199593,42.525624196001445,47.526475890001166,41.52551515199593,1,1.5120974500023294,47.526475890001166,41.52551515199593,,,subj024,001,2023_Feb_04_1620,item,3.2.3,60.08111335027736,
binoculars,0,2,2,1,,,,,,,,,,,,,53.53790493599081,None,52.53750042899628,53.554702818000806,58.52110635698773,63.520942032992025,2,0.7595294829952763,58.52110635698773,63.520942032992025,,,subj024,001,2023_Feb_04_1620,item,3.2.3,60.08111335027736,
ketchup,0,3,3,2,,,,,,,,,,,,,64.52109453699086,74.52040474899695,63.53773277699656,64.53798443399137,69.53798527599429,None,2,1.1196380100009264,69.53798527599429,None,,,subj024,001,2023_Feb_04_1620,item,3.2.3,60.08111335027736,
coyote,0,4,4,27,,,,,,,,,,,,,75.52135444499436,85.52084446098888,74.53758839599323,75.53758742799982,80.5259560669947,None,1,0.7805685689963866,80.5259560669947,None,,,subj024,001,2023_Feb_04_1620,item,3.2.3,60.08111335027736,
treadmill,0,5,5,16,,,,,,,,,,,,,86.52667919699161,None,85.53692125699308,86.54304734199832,91.52638098799798,None,2,1.4563013239967404,91.52638098799798,None,,,subj024,001,2023_Feb_04_1620,item,3.2.3,60.08111335027736,
axe,0,6,6,0,,,,,,,,,,,,,97.52636398999311,None,96.53732656600187,97.54317950499535,102.52619710400177,None,2,0.8124499050027225,102.52619710400177,None,,,subj024,001,2023_Feb_04_1620,item,3.2.3,60.08111335027736,
microscope,0,7,7,6,,,,,,,,,,,,,108.50939087699226,107.5264833909896,107.5264833909896,108.52620762700099,113.50938776398834,107.5264833909896,2,2.243257858994184,113.50938776398834,107.5264833909896,,,subj024,001,2023_Feb_04_1620,item,3.2.3,60.08111335027736,
keyboard,0,8,8,15,,,,,,,,,,,,,119.49263294499542,118.50990337799885,118.50990337799885,119.50993195699994,124.49274030799279,118.50990337799885,2,0.7209132709976984,124.49274030799279,118.50990337799885,,,subj024,001,2023_Feb_04_1620,item,3.2.3,60.08111335027736,
violinist,0,9,9,39,,,,,,,,,,,,,130.4927400359884,129.503658111993,129.503658111993,130.51993205500185,135.47613626100065,140.47620325499156,1,0.5895240280078724,135.47613626100065,140.47620325499156,,,subj024,001,2023_Feb_04_1620,item,3.2.3,60.08111335027736,
elephant,0,10,10,21,,,,,,,,,,,,,141.50332935499318,140.4933923209901,140.4933923209901,141.50332935499318,146.47596424999938,151.475984839999,1,0.8757059869967634,146.47596424999938,151.475984839999,,,subj024,001,2023_Feb_04_1620,item,3.2.3,60.08111335027736,
leopard,0,11,11,24,,,,,,,,,,,,,152.51999325498764,151.51986848699744,151.51986848699744,152.51999325498764,157.5100168989884,162.51007247099187,1,2.0075178219994996,157.5100168989884,162.51007247099187,,,subj024,001,2023_Feb_04_1620,item,3.2.3,60.08111335027736,
seahorse,0,12,12,33,,,,,,,,,,,,,163.510197614989,162.53644068099675,162.53644068099675,163.5532578239945,168.50940925598843,None,1,1.6932323299988639,168.50940925598843,None,,,subj024,001,2023_Feb_04_1620,item,3.2.3,60.08111335027736,
cheesecake,0,13,13,7,,,,,,,,,,,,,174.51923139899736,173.51908346699202,173.51908346699202,174.51923139899736,179.51971059999778,173.51908346699202,2,2.3998938460135832,179.51971059999778,173.51908346699202,,,subj024,001,2023_Feb_04_1620,item,3.2.3,60.08111335027736,
mirror,0,14,14,10,,,,,,,,,,,,,185.5265665869956,None,184.5361957319983,185.5265665869956,190.51984869698936,None,2,0.747686075992533,190.51984869698936,None,,,subj024,001,2023_Feb_04_1620,item,3.2.3,60.08111335027736,
walrus,0,15,15,25,,,,,,,,,,,,,196.5261841499887,195.52535786898807,195.52535786898807,196.5261841499887,201.5266368369921,195.52535786898807,1,0.9829603089892771,201.5266368369921,195.52535786898807,,,subj024,001,2023_Feb_04_1620,item,3.2.3,60.08111335027736,
scalpel,0,16,16,19,,,,,,,,,,,,,207.50955444599094,None,206.5264893949934,207.5262966839946,212.5100586799963,None,2,1.4915702490106924,212.5100586799963,None,,,subj024,001,2023_Feb_04_1620,item,3.2.3,60.08111335027736,
cheerleader,0,17,17,32,,,,,,,,,,,,,218.49287348499638,217.51871041399136,217.51871041399136,218.5267932079878,223.49347401999694,217.51871041399136,1,1.717058458001702,223.49347401999694,217.51871041399136,,,subj024,001,2023_Feb_04_1620,item,3.2.3,60.08111335027736,
waterfall,0,18,18,18,,,,,,,,,,,,,229.47701672499534,239.4856662289967,228.493219372991,229.49349383699882,234.48554791900096,228.493219372991,2,3.2940989339986118,234.48554791900096,228.493219372991,,,subj024,001,2023_Feb_04_1620,item,3.2.3,60.08111335027736,
grandfather,0,19,19,34,,,,,,,,,,,,,240.5016625809949,None,239.50243372099067,240.5016625809949,245.47684914499405,250.47609878599178,1,0.49378944099589717,245.47684914499405,250.47609878599178,,,subj024,001,2023_Feb_04_1620,item,3.2.3,60.08111335027736,
crab,0,20,20,31,,,,,,,,,,,,,251.5098777499952,250.5189415049972,250.5189415049972,251.5098777499952,256.50214828399476,261.5021425779996,1,0.9455126530083362,256.50214828399476,261.5021425779996,,,subj024,001,2023_Feb_04_1620,item,3.2.3,60.08111335027736,
camera,0,21,21,3,,,,,,,,,,,,,262.5022255079966,272.4936092499993,261.5177349539881,262.51895839998906,267.51756419699814,None,2,2.4300755229924107,267.51756419699814,None,,,subj024,001,2023_Feb_04_1620,item,3.2.3,60.08111335027736,
swan,0,22,22,29,,,,,,,,,,,,,273.53545961699274,None,272.53481581599044,273.5517775549961,278.526938873998,283.5269869039912,1,1.4565988989925245,278.526938873998,283.5269869039912,,,subj024,001,2023_Feb_04_1620,item,3.2.3,60.08111335027736,
knight,0,23,23,38,,,,,,,,,,,,,284.5269858459942,None,283.5429916379944,284.55192268699466,289.5351038160006,None,1,1.2064198419975583,289.5351038160006,None,,,subj024,001,2023_Feb_04_1620,item,3.2.3,60.08111335027736,
bulldozer,0,24,24,17,,,,,,,,,,,,,295.50964927399764,305.5179476839985,294.53451299099834,295.54322964198946,300.518051002,None,1,2.2396444869955303,300.518051002,None,,,subj024,001,2023_Feb_04_1620,item,3.2.3,60.08111335027736,
chipmunk,0,25,25,26,,,,,,,,,,,,,306.5175638169894,None,305.5347997559875,306.52688887598924,311.5270294949878,None,1,0.8116317189997062,311.5270294949878,None,,,subj024,001,2023_Feb_04_1620,item,3.2.3,60.08111335027736,
snowball,0,26,26,14,,,,,,,,,,,,,317.5179299649899,316.52705864699965,316.52705864699965,317.5270179509971,322.51038072200026,327.5103779499914,2,0.7572535560029792,322.51038072200026,327.5103779499914,,,subj024,001,2023_Feb_04_1620,item,3.2.3,60.08111335027736,
necklace,0,27,27,12,,,,,,,,,,,,,328.5097119860002,None,327.5263738989888,328.5264023899945,333.50974061898887,None,2,0.9148737020004774,333.50974061898887,None,,,subj024,001,2023_Feb_04_1620,item,3.2.3,60.08111335027736,
donkey,0,28,28,23,,,,,,,,,,,,,339.49265236599604,349.49306740298925,338.5177407299925,339.5346022829908,344.50082595999993,338.5177407299925,1,2.167818724003155,344.50082595999993,338.5177407299925,,,subj024,001,2023_Feb_04_1620,item,3.2.3,60.08111335027736,
umbrella,0,29,29,5,,,,,,,,,,,,,350.493952039993,360.4930826439959,349.50993808399653,350.50995214498835,355.50105990099837,349.50993808399653,2,1.9705832070030738,355.50105990099837,349.50993808399653,,,subj024,001,2023_Feb_04_1620,item,3.2.3,60.08111335027736,
airplane,0,30,30,9,,,,,,,,,,,,,361.50077871399117,None,360.517017856997,361.5174187639932,366.4931243089959,371.5005624059995,2,0.414450680007576,366.4931243089959,371.5005624059995,,,subj024,001,2023_Feb_04_1620,item,3.2.3,60.08111335027736,
ladybug,0,31,31,30,,,,,,,,,,,,,372.51667043699126,371.51682850299403,371.51682850299403,372.51667043699126,377.51064672299253,None,1,1.9620059660082916,377.51064672299253,None,,,subj024,001,2023_Feb_04_1620,item,3.2.3,60.08111335027736,
fingerprint,0,32,32,11,,,,,,,,,,,,,383.5103895009961,393.5098998149915,382.5170661909942,383.5103895009961,388.51722704399435,382.5170661909942,2,1.0574771129904548,388.51722704399435,382.5170661909942,,,subj024,001,2023_Feb_04_1620,item,3.2.3,60.08111335027736,
hairstylist,0,33,33,37,,,,,,,,,,,,,394.51053200398746,404.5106231059908,393.52734528199653,394.5265623519954,399.5166451569967,393.52734528199653,1,4.014913722989149,399.5166451569967,393.52734528199653,,,subj024,001,2023_Feb_04_1620,item,3.2.3,60.08111335027736,
baby,0,34,34,20,,,,,,,,,,,,,405.51668447199336,None,404.53380212899356,405.52719027698913,410.5106122279976,None,1,1.3319460979982978,410.5106122279976,None,,,subj024,001,2023_Feb_04_1620,item,3.2.3,60.08111335027736,
cabdriver,0,35,35,36,,,,,,,,,,,,,416.51695954699244,415.5162155799917,415.5162155799917,416.51695954699244,421.51665745499486,415.5162155799917,1,1.3188618490094086,421.51665745499486,415.5162155799917,,,subj024,001,2023_Feb_04_1620,item,3.2.3,60.08111335027736,
porcupine,0,36,36,22,,,,,,,,,,,,,427.5105715509999,None,426.5274379249895,427.52734860299097,432.5105970079894,None,1,1.1150374129938427,432.5105970079894,None,,,subj024,001,2023_Feb_04_1620,item,3.2.3,60.08111335027736,
stove,0,37,37,13,,,,,,,,,,,,,438.49312030999863,448.49329960400064,437.51070324899047,438.5099295179971,443.49953279799956,437.51070324899047,2,0.7331569359957939,443.49953279799956,437.51070324899047,,,subj024,001,2023_Feb_04_1620,item,3.2.3,60.08111335027736,
hummingbird,0,38,38,28,,,,,,,,,,,,,449.5109173279925,None,448.510094510988,449.5109173279925,454.51019255199935,459.5155958039977,1,2.523318339997786,454.51019255199935,459.5155958039977,,,subj024,001,2023_Feb_04_1620,item,3.2.3,60.08111335027736,
hair,0,39,39,8,,,,,,,,,,,,,460.5104243699898,None,459.5325343180011,460.5436832369887,465.510652691999,None,2,3.738994992992957,465.510652691999,None,,,subj024,001,2023_Feb_04_1620,item,3.2.3,60.08111335027736,
,,,,,,,,,,,,,,,,,,,,,,,,,,,470.51600545099063,None,,,,,,,
