Word,trials.thisRepN,trials.thisTrialN,trials.thisN,trials.thisIndex,text.started,text.stopped,key_resp.keys,key_resp.rt,key_resp.started,key_resp.stopped,text_2.started,text_2.stopped,key_resp_2.keys,key_resp_2.rt,key_resp_2.started,key_resp_2.stopped,text_3.started,text_3.stopped,text_4.started,text_4.stopped,text_5.started,text_5.stopped,key_resp_3.keys,key_resp_3.rt,key_resp_3.started,key_resp_3.stopped,text_6.started,text_6.stopped,participant,session,date,expName,psychopyVersion,frameRate,
,,,,,9.800807691004593,None,1,20.793332233995898,9.800807691004593,None,,,,,,,,,,,,,,,,,,,subj024,001,2023_Feb_04_1611,item,3.2.3,60.153710897463945,
,,,,,,,,,,,30.614097577999928,None,5,17.37604159899638,30.614097577999928,None,,,,,,,,,,,,,subj024,001,2023_Feb_04_1611,item,3.2.3,60.153710897463945,
crab,0,0,0,31,,,,,,,,,,,,,49.01551562199893,None,48.016631007994874,49.03178476099856,54.014923462003935,None,1,2.5712034569878597,54.014923462003935,None,,,subj024,001,2023_Feb_04_1611,item,3.2.3,60.153710897463945,
stove,0,1,1,13,,,,,,,,,,,,,59.99764246099221,None,59.01450797299913,60.01481759099988,64.99807420099387,None,2,3.178049680995173,64.99807420099387,None,,,subj024,001,2023_Feb_04_1611,item,3.2.3,60.153710897463945,
seahorse,0,2,2,33,,,,,,,,,,,,,70.98139355699823,69.99837348000437,69.99837348000437,70.99853285599966,75.98219945500023,69.99837348000437,1,2.9099587530072313,75.98219945500023,69.99837348000437,,,subj024,001,2023_Feb_04_1611,item,3.2.3,60.153710897463945,
axe,0,3,3,0,,,,,,,,,,,,,81.96558482899854,80.98177462599415,80.98177462599415,81.98201321299712,86.96563435799908,80.98177462599415,2,1.387476275995141,86.96563435799908,80.98177462599415,,,subj024,001,2023_Feb_04_1611,item,3.2.3,60.153710897463945,
ladybug,0,4,4,30,,,,,,,,,,,,,92.94889690099808,91.96436808300496,91.96436808300496,92.96536145899154,97.94900173800124,91.96436808300496,1,3.005154689992196,97.94900173800124,91.96436808300496,,,subj024,001,2023_Feb_04_1611,item,3.2.3,60.153710897463945,
airplane,0,5,5,9,,,,,,,,,,,,,103.93222760899516,102.94821631499508,102.94821631499508,103.94874160099425,108.9314984770026,102.94821631499508,2,1.5866051979974145,108.9314984770026,102.94821631499508,,,subj024,001,2023_Feb_04_1611,item,3.2.3,60.153710897463945,
microscope,0,6,6,6,,,,,,,,,,,,,114.93148232200474,113.93172514399339,113.93172514399339,114.93148232200474,119.93200403200171,113.93172514399339,2,3.099031007004669,119.93200403200171,113.93172514399339,,,subj024,001,2023_Feb_04_1611,item,3.2.3,60.153710897463945,
bulldozer,0,7,7,17,,,,,,,,,,,,,125.9317910559912,124.93062610899506,124.93062610899506,125.9317910559912,130.93203748499218,124.93062610899506,2,1.2240850230009528,130.93203748499218,124.93062610899506,,,subj024,001,2023_Feb_04_1611,item,3.2.3,60.153710897463945,
platypus,0,8,8,35,,,,,,,,,,,,,136.91542307699274,135.93122845399193,135.93122845399193,136.93222118999984,141.91554854699643,135.93122845399193,1,4.135566545999609,141.91554854699643,135.93122845399193,,,subj024,001,2023_Feb_04_1611,item,3.2.3,60.153710897463945,
binoculars,0,9,9,1,,,,,,,,,,,,,147.8984004130034,146.91517769799975,146.91517769799975,147.9155851349933,152.8988250149996,146.91517769799975,2,3.5342107149917865,152.8988250149996,146.91517769799975,,,subj024,001,2023_Feb_04_1611,item,3.2.3,60.153710897463945,
scalpel,0,10,10,19,,,,,,,,,,,,,158.88203537199297,157.8989132150018,157.8989132150018,158.898282078997,163.88212842600478,157.8989132150018,2,1.2400538509973558,163.88212842600478,157.8989132150018,,,subj024,001,2023_Feb_04_1611,item,3.2.3,60.153710897463945,
fingerprint,0,11,11,11,,,,,,,,,,,,,169.86507111899846,179.86565165199863,168.8812780599983,169.88227484500385,174.86619917200005,168.8812780599983,2,0.9498043280036654,174.86619917200005,168.8812780599983,,,subj024,001,2023_Feb_04_1611,item,3.2.3,60.153710897463945,
snowball,0,12,12,14,,,,,,,,,,,,,180.88149980799062,None,179.88218354700075,180.88149980799062,185.8817332990002,179.88218354700075,2,3.4373882029904053,185.8817332990002,179.88218354700075,,,subj024,001,2023_Feb_04_1611,item,3.2.3,60.153710897463945,
swan,0,13,13,29,,,,,,,,,,,,,191.86501310000313,190.881922888002,190.881922888002,191.8822080779937,196.8655424699973,190.881922888002,1,1.1215739679901162,196.8655424699973,190.881922888002,,,subj024,001,2023_Feb_04_1611,item,3.2.3,60.153710897463945,
violinist,0,14,14,39,,,,,,,,,,,,,202.8483329419978,201.86561027399148,201.86561027399148,202.8655813679943,207.84872010799882,201.86561027399148,1,3.766304165998008,207.84872010799882,201.86561027399148,,,subj024,001,2023_Feb_04_1611,item,3.2.3,60.153710897463945,
baby,0,15,15,20,,,,,,,,,,,,,213.8325548559951,212.84871659700002,212.84871659700002,213.84884984599194,218.83255119499518,212.84871659700002,1,0.7684656990022631,218.83255119499518,212.84871659700002,,,subj024,001,2023_Feb_04_1611,item,3.2.3,60.153710897463945,
cabdriver,0,16,16,36,,,,,,,,,,,,,224.81504635199963,223.832679389001,223.832679389001,224.8318889229995,229.8159211750026,223.832679389001,1,1.6972409570007585,229.8159211750026,223.832679389001,,,subj024,001,2023_Feb_04_1611,item,3.2.3,60.153710897463945,
waterfall,0,17,17,18,,,,,,,,,,,,,235.7991421189945,234.8153456709988,234.8153456709988,235.81525382600375,240.79852308699628,234.8153456709988,2,2.9684600040054647,240.79852308699628,234.8153456709988,,,subj024,001,2023_Feb_04_1611,item,3.2.3,60.153710897463945,
keyboard,0,18,18,15,,,,,,,,,,,,,246.78178437599854,245.7986294549919,245.7986294549919,246.7986240399914,251.78186112099502,245.7986294549919,2,2.9922619580029277,251.78186112099502,245.7986294549919,,,subj024,001,2023_Feb_04_1611,item,3.2.3,60.153710897463945,
hummingbird,0,19,19,28,,,,,,,,,,,,,257.7650980180042,256.78161575899867,256.78161575899867,257.78199067099195,262.76610329799587,256.78161575899867,1,0.6499387550138636,262.76610329799587,256.78161575899867,,,subj024,001,2023_Feb_04_1611,item,3.2.3,60.153710897463945,
chipmunk,0,20,20,26,,,,,,,,,,,,,268.7493013839994,267.7656351469923,267.7656351469923,268.765666264997,273.74849318199267,278.74780300499697,1,0.6855459509970387,273.74849318199267,278.74780300499697,,,subj024,001,2023_Feb_04_1611,item,3.2.3,60.153710897463945,
ketchup,0,21,21,2,,,,,,,,,,,,,279.7486518959922,278.7654284119926,278.7654284119926,279.7649640890013,284.7478627849923,None,2,4.080266521006706,284.7478627849923,None,,,subj024,001,2023_Feb_04_1611,item,3.2.3,60.153710897463945,
porcupine,0,22,22,22,,,,,,,,,,,,,290.7319132190023,289.74798946299416,289.74798946299416,290.74825239999336,295.731524488001,289.74798946299416,1,2.344466876995284,295.731524488001,289.74798946299416,,,subj024,001,2023_Feb_04_1611,item,3.2.3,60.153710897463945,
donkey,0,23,23,23,,,,,,,,,,,,,301.7145440930035,300.73147879799944,300.73147879799944,301.7312785379909,306.7146259339934,300.73147879799944,1,1.2604996570007643,306.7146259339934,300.73147879799944,,,subj024,001,2023_Feb_04_1611,item,3.2.3,60.153710897463945,
coyote,0,24,24,27,,,,,,,,,,,,,312.6978785669926,311.71470482899167,311.71470482899167,312.7147107189958,317.69793203199515,311.71470482899167,1,0.877225867996458,317.69793203199515,311.71470482899167,,,subj024,001,2023_Feb_04_1611,item,3.2.3,60.153710897463945,
necklace,0,25,25,12,,,,,,,,,,,,,323.68126837299496,322.69803768600104,322.69803768600104,323.6980260400014,328.68130690799444,322.69803768600104,2,0.8356952520116465,328.68130690799444,322.69803768600104,,,subj024,001,2023_Feb_04_1611,item,3.2.3,60.153710897463945,
mirror,0,26,26,10,,,,,,,,,,,,,334.66447626300214,333.6810262009967,333.6810262009967,334.6813054049999,339.66455545599456,333.6810262009967,2,4.437569484987762,339.66455545599456,333.6810262009967,,,subj024,001,2023_Feb_04_1611,item,3.2.3,60.153710897463945,
cheerleader,0,27,27,32,,,,,,,,,,,,,345.64946742799657,344.6649068609986,344.6649068609986,345.665898798994,350.6491176499985,344.6649068609986,1,0.8489012659993023,350.6491176499985,344.6649068609986,,,subj024,001,2023_Feb_04_1611,item,3.2.3,60.153710897463945,
hair,0,28,28,8,,,,,,,,,,,,,356.632115942004,355.6489419129939,355.6489419129939,356.6489880839945,361.63223881500016,355.6489419129939,2,0.7279466749896528,361.63223881500016,355.6489419129939,,,subj024,001,2023_Feb_04_1611,item,3.2.3,60.153710897463945,
camera,0,29,29,3,,,,,,,,,,,,,367.6155214169994,366.6311292719911,366.6311292719911,367.63248586899135,372.6155504089984,366.6311292719911,2,0.7664950670005055,372.6155504089984,366.6311292719911,,,subj024,001,2023_Feb_04_1611,item,3.2.3,60.153710897463945,
leopard,0,30,30,24,,,,,,,,,,,,,378.59880855699885,377.61493720499857,377.61493720499857,378.6156386240036,383.5994988599996,377.61493720499857,1,4.8086453689902555,383.5994988599996,377.61493720499857,,,subj024,001,2023_Feb_04_1611,item,3.2.3,60.153710897463945,
elephant,0,31,31,21,,,,,,,,,,,,,389.58211369099445,388.598115692992,388.598115692992,389.5988526309957,394.58218496000336,388.598115692992,1,2.0838058529916452,394.58218496000336,388.598115692992,,,subj024,001,2023_Feb_04_1611,item,3.2.3,60.153710897463945,
umbrella,0,32,32,5,,,,,,,,,,,,,400.56652744600433,399.58201933400414,399.58201933400414,400.5834310929931,405.5666060609947,399.58201933400414,2,2.0725374550092965,405.5666060609947,399.58201933400414,,,subj024,001,2023_Feb_04_1611,item,3.2.3,60.153710897463945,
treadmill,0,33,33,16,,,,,,,,,,,,,411.5666718459979,410.5656230280001,410.5656230280001,411.5666718459979,416.5662752569915,410.5656230280001,2,4.737855622006464,416.5662752569915,410.5656230280001,,,subj024,001,2023_Feb_04_1611,item,3.2.3,60.153710897463945,
passport,0,34,34,4,,,,,,,,,,,,,422.54937838700425,421.5667269139958,421.5667269139958,422.56618926199735,427.549461771996,421.5667269139958,2,0.7175459930003854,427.549461771996,421.5667269139958,,,subj024,001,2023_Feb_04_1611,item,3.2.3,60.153710897463945,
hairstylist,0,35,35,37,,,,,,,,,,,,,433.5327061029966,432.5492443109979,432.5492443109979,433.5495225259947,438.53271654900163,432.5492443109979,1,2.6034161999996286,438.53271654900163,432.5492443109979,,,subj024,001,2023_Feb_04_1611,item,3.2.3,60.153710897463945,
grandfather,0,36,36,34,,,,,,,,,,,,,444.5160083899973,443.53176203300245,443.53176203300245,444.5327788479917,449.5158789069974,443.53176203300245,1,4.234155675992952,449.5158789069974,443.53176203300245,,,subj024,001,2023_Feb_04_1611,item,3.2.3,60.153710897463945,
cheesecake,0,37,37,7,,,,,,,,,,,,,455.4990632169938,454.5147526350047,454.5147526350047,455.5153416069952,460.49843871500343,454.5147526350047,2,1.131680125996354,460.49843871500343,454.5147526350047,,,subj024,001,2023_Feb_04_1611,item,3.2.3,60.153710897463945,
knight,0,38,38,38,,,,,,,,,,,,,466.4824642559979,465.4985813139938,465.4985813139938,466.4995472699957,471.4828709400026,465.4985813139938,1,1.959098213003017,471.4828709400026,465.4985813139938,,,subj024,001,2023_Feb_04_1611,item,3.2.3,60.153710897463945,
walrus,0,39,39,25,,,,,,,,,,,,,477.4668727690005,476.481891834992,476.481891834992,477.4831406049925,482.4668796509941,476.481891834992,1,0.8651587490021484,482.4668796509941,476.481891834992,,,subj024,001,2023_Feb_04_1611,item,3.2.3,60.153710897463945,
,,,,,,,,,,,,,,,,,,,,,,,,,,,487.46630951200495,None,,,,,,,
