Word,trials.thisRepN,trials.thisTrialN,trials.thisN,trials.thisIndex,text.started,text.stopped,key_resp.keys,key_resp.rt,key_resp.started,key_resp.stopped,text_2.started,text_2.stopped,key_resp_2.keys,key_resp_2.rt,key_resp_2.started,key_resp_2.stopped,text_3.started,text_3.stopped,text_4.started,text_4.stopped,text_5.started,text_5.stopped,key_resp_3.keys,key_resp_3.rt,key_resp_3.started,key_resp_3.stopped,text_6.started,text_6.stopped,participant,session,date,expName,psychopyVersion,frameRate,
,,,,,14.43615559898899,None,1,7.4535170790040866,14.43615559898899,None,,,,,,,,,,,,,,,,,,,subj029,001,2023_Apr_16_1247,item_20(VR),3.2.3,59.706216636040025,
,,,,,,,,,,,21.920361210999545,None,5,29.74221975999535,21.920361210999545,None,,,,,,,,,,,,,subj029,001,2023_Apr_16_1247,item_20(VR),3.2.3,59.706216636040025,
chipmunk,0,0,0,18,,,,,,,,,,,,,52.681052190979244,None,51.685989851976046,52.69782827599556,57.68118051998317,None,1,1.8364649990107864,57.68118051998317,None,,,subj029,001,2023_Apr_16_1247,item_20(VR),3.2.3,59.706216636040025,
porcupine,0,1,1,13,,,,,,,,,,,,,63.686470150976675,None,62.686494854977354,63.686470150976675,68.6805016269791,None,1,1.236017504998017,68.6805016269791,None,,,subj029,001,2023_Apr_16_1247,item_20(VR),3.2.3,59.706216636040025,
treadmill,0,2,2,17,,,,,,,,,,,,,74.68641785398358,None,73.68679812998744,74.6977019449987,79.68648380198283,None,2,1.2111952790000942,79.68648380198283,None,,,subj029,001,2023_Apr_16_1247,item_20(VR),3.2.3,59.706216636040025,
ladybug,0,3,3,10,,,,,,,,,,,,,85.66488889299217,95.66435705497861,84.6861606699822,85.70306388899917,90.68627354199998,None,1,0.9583143460040446,90.68627354199998,None,,,subj029,001,2023_Apr_16_1247,item_20(VR),3.2.3,59.706216636040025,
axe,0,4,4,6,,,,,,,,,,,,,96.68129818097805,None,95.69750223000301,96.70329947597929,101.68083635097719,None,2,1.1438461010111496,101.68083635097719,None,,,subj029,001,2023_Apr_16_1247,item_20(VR),3.2.3,59.706216636040025,
mirror,0,5,5,11,,,,,,,,,,,,,107.68087538098916,None,106.68681879897485,107.69777642100235,112.68062957198708,117.68566134700086,2,1.1179403080022894,112.68062957198708,117.68566134700086,,,subj029,001,2023_Apr_16_1247,item_20(VR),3.2.3,59.706216636040025,
waterfall,0,6,6,2,,,,,,,,,,,,,118.69718217899208,None,117.69725806999486,118.69718217899208,123.70304351797677,None,2,0.8595636449754238,123.70304351797677,None,,,subj029,001,2023_Apr_16_1247,item_20(VR),3.2.3,59.706216636040025,
knight,0,7,7,4,,,,,,,,,,,,,129.68523365998408,None,128.69829655697686,129.70256426598644,134.68140301998938,None,1,0.7861491360235959,134.68140301998938,None,,,subj029,001,2023_Apr_16_1247,item_20(VR),3.2.3,59.706216636040025,
microscope,0,8,8,1,,,,,,,,,,,,,140.69785475399112,None,139.71431175299222,140.71465274499496,145.69796192197828,None,2,1.0756259600166231,145.69796192197828,None,,,subj029,001,2023_Apr_16_1247,item_20(VR),3.2.3,59.706216636040025,
cheerleader,0,9,9,12,,,,,,,,,,,,,151.68121348199202,None,150.70213000298827,151.71425074100262,156.6812542009866,None,1,0.770424162998097,156.6812542009866,None,,,subj029,001,2023_Apr_16_1247,item_20(VR),3.2.3,59.706216636040025,
hummingbird,0,10,10,5,,,,,,,,,,,,,162.68135148799047,None,161.68048636100139,162.68135148799047,167.66385589598212,172.668850506976,1,0.9217939600057434,167.66385589598212,172.668850506976,,,subj029,001,2023_Apr_16_1247,item_20(VR),3.2.3,59.706216636040025,
leopard,0,11,11,0,,,,,,,,,,,,,173.68102044297848,None,172.67981200199574,173.68102044297848,178.6853221420024,None,1,0.8093899369996507,178.6853221420024,None,,,subj029,001,2023_Apr_16_1247,item_20(VR),3.2.3,59.706216636040025,
grandfather,0,12,12,7,,,,,,,,,,,,,184.68083574497723,None,183.69723111999338,184.69808452000143,189.68045967299258,None,1,1.0622390610224102,189.68045967299258,None,,,subj029,001,2023_Apr_16_1247,item_20(VR),3.2.3,59.706216636040025,
baby,0,13,13,14,,,,,,,,,,,,,195.66321048600366,194.68132999900263,194.68132999900263,195.69778554397635,200.66465751000214,194.68132999900263,1,1.3580221800075378,200.66465751000214,194.68132999900263,,,subj029,001,2023_Apr_16_1247,item_20(VR),3.2.3,59.706216636040025,
snowball,0,14,14,19,,,,,,,,,,,,,206.6479685009981,205.6686572949984,205.6686572949984,206.68107719399268,211.6480187419802,205.6686572949984,2,1.3495322160015348,211.6480187419802,205.6686572949984,,,subj029,001,2023_Apr_16_1247,item_20(VR),3.2.3,59.706216636040025,
cabdriver,0,15,15,8,,,,,,,,,,,,,217.6512244810001,216.6476934409875,216.6476934409875,217.6512244810001,222.6481593249773,227.64825300799566,1,1.304382386006182,222.6481593249773,227.64825300799566,,,subj029,001,2023_Apr_16_1247,item_20(VR),3.2.3,59.706216636040025,
ketchup,0,16,16,15,,,,,,,,,,,,,228.65132536899182,227.6676000939915,227.6676000939915,228.66712271198048,233.6514828109939,None,2,0.6650116689852439,233.6514828109939,None,,,subj029,001,2023_Apr_16_1247,item_20(VR),3.2.3,59.706216636040025,
passport,0,17,17,16,,,,,,,,,,,,,239.64790745999198,238.6637844700017,238.6637844700017,239.66475619998528,244.6481026620022,238.6637844700017,2,0.8035550389904529,244.6481026620022,238.6637844700017,,,subj029,001,2023_Apr_16_1247,item_20(VR),3.2.3,59.706216636040025,
hair,0,18,18,9,,,,,,,,,,,,,250.63091903398163,249.64738244898035,249.64738244898035,250.64738310797838,255.63058559800265,249.64738244898035,2,0.7159974389942363,255.63058559800265,249.64738244898035,,,subj029,001,2023_Apr_16_1247,item_20(VR),3.2.3,59.706216636040025,
necklace,0,19,19,3,,,,,,,,,,,,,261.61465264100116,260.6314935599803,260.6314935599803,261.63456354799564,266.61475052600144,260.6314935599803,2,1.3819023569812998,266.61475052600144,260.6314935599803,,,subj029,001,2023_Apr_16_1247,item_20(VR),3.2.3,59.706216636040025,
,,,,,,,,,,,,,,,,,,,,,,,,,,,271.61407113599125,None,,,,,,,
