Word,trials.thisRepN,trials.thisTrialN,trials.thisN,trials.thisIndex,text.started,text.stopped,key_resp.keys,key_resp.rt,key_resp.started,key_resp.stopped,text_2.started,text_2.stopped,key_resp_2.keys,key_resp_2.rt,key_resp_2.started,key_resp_2.stopped,text_3.started,text_3.stopped,text_4.started,text_4.stopped,text_5.started,text_5.stopped,key_resp_3.keys,key_resp_3.rt,key_resp_3.started,key_resp_3.stopped,text_6.started,text_6.stopped,participant,session,date,expName,psychopyVersion,frameRate,
,,,,,7.861950077999609,None,1,1.4304938239997682,7.861950077999609,None,,,,,,,,,,,,,,,,,,,subj008,002,2022_Apr_09_1712,item,3.2.3,59.891462176874875,
,,,,,,,,,,,9.310640145999969,None,5,17.057000622000032,9.310640145999969,None,,,,,,,,,,,,,subj008,002,2022_Apr_09_1712,item,3.2.3,59.891462176874875,
ketchup,0,0,0,2,,,,,,,,,,,,,27.394372087999727,None,26.411172337999687,27.411601482999686,32.394153967999955,None,2,0.371464369000023,32.394153967999955,None,,,subj008,002,2022_Apr_09_1712,item,3.2.3,59.891462176874875,
platypus,0,1,1,35,,,,,,,,,,,,,38.3942118369996,37.394588262999605,37.394588262999605,38.3942118369996,43.3942156119997,37.394588262999605,1,0.9233978639999805,43.3942156119997,37.394588262999605,,,subj008,002,2022_Apr_09_1712,item,3.2.3,59.891462176874875,
cheerleader,0,2,2,32,,,,,,,,,,,,,49.378205697999874,48.3949678289996,48.3949678289996,49.394050504000006,54.37824194999985,48.3949678289996,1,0.6642483890000221,54.37824194999985,48.3949678289996,,,subj008,002,2022_Apr_09_1712,item,3.2.3,59.891462176874875,
hairstylist,0,3,3,37,,,,,,,,,,,,,60.36150068799998,59.37697266399982,59.37697266399982,60.377372760999606,65.36119108999992,59.37697266399982,1,0.46142483999983597,65.36119108999992,59.37697266399982,,,subj008,002,2022_Apr_09_1712,item,3.2.3,59.891462176874875,
microscope,0,4,4,6,,,,,,,,,,,,,71.36080170099967,70.36038871599976,70.36038871599976,71.36080170099967,76.36099903900003,70.36038871599976,2,0.5116155470000194,76.36099903900003,70.36038871599976,,,subj008,002,2022_Apr_09_1712,item,3.2.3,59.891462176874875,
crab,0,5,5,31,,,,,,,,,,,,,82.34495935199993,81.36097586100004,81.36097586100004,82.36161277199972,87.34500358900004,81.36097586100004,1,0.7805628000000979,87.34500358900004,81.36097586100004,,,subj008,002,2022_Apr_09_1712,item,3.2.3,59.891462176874875,
passport,0,6,6,4,,,,,,,,,,,,,93.32814745299993,92.34508415799974,92.34508415799974,93.34437688199978,98.32842498899981,92.34508415799974,2,0.6190239450002082,98.32842498899981,92.34508415799974,,,subj008,002,2022_Apr_09_1712,item,3.2.3,59.891462176874875,
baby,0,7,7,20,,,,,,,,,,,,,104.31165201999966,103.32773467699963,103.32773467699963,104.32773101299972,109.3117985859999,103.32773467699963,1,0.6597813039998073,109.3117985859999,103.32773467699963,,,subj008,002,2022_Apr_09_1712,item,3.2.3,59.891462176874875,
cheesecake,0,8,8,7,,,,,,,,,,,,,115.29500645799999,114.31080202899966,114.31080202899966,115.31111807399975,120.29514223999968,114.31080202899966,2,1.0074719899998854,120.29514223999968,114.31080202899966,,,subj008,002,2022_Apr_09_1712,item,3.2.3,59.891462176874875,
necklace,0,9,9,12,,,,,,,,,,,,,126.27827462699997,125.29505076999976,125.29505076999976,126.29438665199996,131.2775641139997,125.29505076999976,2,1.068889580999894,131.2775641139997,125.29505076999976,,,subj008,002,2022_Apr_09_1712,item,3.2.3,59.891462176874875,
scalpel,0,10,10,19,,,,,,,,,,,,,137.32747796399963,136.27750004499967,136.27750004499967,137.34468370499962,142.2618444169998,147.26092887899995,2,1.172767720000138,142.2618444169998,147.26092887899995,,,subj008,002,2022_Apr_09_1712,item,3.2.3,59.891462176874875,
coyote,0,11,11,27,,,,,,,,,,,,,148.31104513699984,147.32870384299986,147.32870384299986,148.34504420199983,153.31109207099962,None,1,1.172488197000348,153.31109207099962,None,,,subj008,002,2022_Apr_09_1712,item,3.2.3,59.891462176874875,
treadmill,0,12,12,16,,,,,,,,,,,,,159.29523720999987,158.31161547700003,158.31161547700003,159.31169450799962,164.29515776399967,158.31161547700003,2,0.6964695459996619,164.29515776399967,158.31161547700003,,,subj008,002,2022_Apr_09_1712,item,3.2.3,59.891462176874875,
leopard,0,13,13,24,,,,,,,,,,,,,170.27855732199987,169.2938117079998,169.2938117079998,170.29493127299975,175.27879353299977,169.2938117079998,1,0.9588498910002272,175.27879353299977,169.2938117079998,,,subj008,002,2022_Apr_09_1712,item,3.2.3,59.891462176874875,
camera,0,14,14,3,,,,,,,,,,,,,181.2618995439998,180.27806316999977,180.27806316999977,181.27795889699973,186.2620024619996,180.27806316999977,2,0.5605748800003312,186.2620024619996,180.27806316999977,,,subj008,002,2022_Apr_09_1712,item,3.2.3,59.891462176874875,
stove,0,15,15,13,,,,,,,,,,,,,192.24525331699988,191.2614366619996,191.2614366619996,192.26207278899983,197.245292779,191.2614366619996,2,1.1543050650002442,197.245292779,191.2614366619996,,,subj008,002,2022_Apr_09_1712,item,3.2.3,59.891462176874875,
airplane,0,16,16,9,,,,,,,,,,,,,203.22855378899976,213.2279759549997,202.2452616569999,203.2452512349996,208.2938059969997,202.2452616569999,2,0.7497035530000176,208.2938059969997,202.2452616569999,,,subj008,002,2022_Apr_09_1712,item,3.2.3,59.891462176874875,
hair,0,17,17,8,,,,,,,,,,,,,214.27798841100002,None,213.29478811599984,214.2949973349996,219.27806279299966,213.29478811599984,2,0.8645306379999056,219.27806279299966,213.29478811599984,,,subj008,002,2022_Apr_09_1712,item,3.2.3,59.891462176874875,
binoculars,0,18,18,1,,,,,,,,,,,,,225.26133372599998,224.2784734259999,224.2784734259999,225.2781759059999,230.26172004399996,224.2784734259999,2,1.0487717099999827,230.26172004399996,224.2784734259999,,,subj008,002,2022_Apr_09_1712,item,3.2.3,59.891462176874875,
seahorse,0,19,19,33,,,,,,,,,,,,,236.2446575859999,235.2617673499999,235.2617673499999,236.26141626699973,241.2445911929999,235.2617673499999,1,1.102973283999745,241.2445911929999,235.2617673499999,,,subj008,002,2022_Apr_09_1712,item,3.2.3,59.891462176874875,
mirror,0,20,20,10,,,,,,,,,,,,,247.22785933399973,246.24470654299967,246.24470654299967,247.24453894499993,252.22793877499998,246.24470654299967,2,1.0376334120001047,252.22793877499998,246.24470654299967,,,subj008,002,2022_Apr_09_1712,item,3.2.3,59.891462176874875,
donkey,0,21,21,23,,,,,,,,,,,,,258.2105767529997,257.22789424699977,257.22789424699977,258.22728285799985,263.21114063100003,257.22789424699977,1,0.4724711670000943,263.21114063100003,257.22789424699977,,,subj008,002,2022_Apr_09_1712,item,3.2.3,59.891462176874875,
chipmunk,0,22,22,26,,,,,,,,,,,,,269.19392290299993,268.21043107900005,268.21043107900005,269.2108168599998,274.193949213,268.21043107900005,1,0.5386481839996122,274.193949213,268.21043107900005,,,subj008,002,2022_Apr_09_1712,item,3.2.3,59.891462176874875,
violinist,0,23,23,39,,,,,,,,,,,,,280.17725210499975,279.1938859279999,279.1938859279999,280.1939898339997,285.177268292,279.1938859279999,1,1.5943119870003102,285.177268292,279.1938859279999,,,subj008,002,2022_Apr_09_1712,item,3.2.3,59.891462176874875,
hummingbird,0,24,24,28,,,,,,,,,,,,,291.1773059879997,290.17716582599996,290.17716582599996,291.1773059879997,296.17737908599975,290.17716582599996,1,0.7220672640000885,296.17737908599975,290.17716582599996,,,subj008,002,2022_Apr_09_1712,item,3.2.3,59.891462176874875,
swan,0,25,25,29,,,,,,,,,,,,,302.16045551599973,301.17674027799967,301.17674027799967,302.17732605599986,307.1605882609997,301.17674027799967,1,0.670991738000339,307.1605882609997,301.17674027799967,,,subj008,002,2022_Apr_09_1712,item,3.2.3,59.891462176874875,
ladybug,0,26,26,30,,,,,,,,,,,,,313.1451466899998,312.161606354,312.161606354,313.16193918199997,318.1450496919997,312.161606354,1,0.9395624829999178,318.1450496919997,312.161606354,,,subj008,002,2022_Apr_09_1712,item,3.2.3,59.891462176874875,
knight,0,27,27,38,,,,,,,,,,,,,324.12828191599965,323.1444341399997,323.1444341399997,324.1449262369997,329.12830164499974,323.1444341399997,1,0.5851461689999269,329.12830164499974,323.1444341399997,,,subj008,002,2022_Apr_09_1712,item,3.2.3,59.891462176874875,
elephant,0,28,28,21,,,,,,,,,,,,,335.1115742529996,345.1115455299996,334.12885646899986,335.12786629699985,340.12853645799987,334.12885646899986,1,0.8169698579999931,340.12853645799987,334.12885646899986,,,subj008,002,2022_Apr_09_1712,item,3.2.3,59.891462176874875,
fingerprint,0,29,29,11,,,,,,,,,,,,,346.1112845439998,None,345.1289669849998,346.1449097579998,351.1113101269998,345.1289669849998,None,,351.1113101269998,345.1289669849998,,,subj008,002,2022_Apr_09_1712,item,3.2.3,59.891462176874875,
snowball,0,30,30,14,,,,,,,,,,,,,357.0955064939999,356.11186272199984,356.11186272199984,357.1113693129996,362.094553076,356.11186272199984,2,1.010034682999958,362.094553076,356.11186272199984,,,subj008,002,2022_Apr_09_1712,item,3.2.3,59.891462176874875,
waterfall,0,31,31,18,,,,,,,,,,,,,368.0792013949999,367.09550701199987,367.09550701199987,368.09574238799996,373.0788621219999,367.09550701199987,2,0.6927508499998112,373.0788621219999,367.09550701199987,,,subj008,002,2022_Apr_09_1712,item,3.2.3,59.891462176874875,
porcupine,0,32,32,22,,,,,,,,,,,,,379.0620867859998,378.0778698649997,378.0778698649997,379.07899634999967,384.06220471200004,378.0778698649997,1,0.5813658480001322,384.06220471200004,378.0778698649997,,,subj008,002,2022_Apr_09_1712,item,3.2.3,59.891462176874875,
cabdriver,0,33,33,36,,,,,,,,,,,,,390.0454197099998,400.04551147899974,389.0614451749998,390.0622382299998,395.062280011,389.0614451749998,1,0.5112988440000663,395.062280011,389.0614451749998,,,subj008,002,2022_Apr_09_1712,item,3.2.3,59.891462176874875,
walrus,0,34,34,25,,,,,,,,,,,,,401.0454412209997,None,400.0615735839997,401.06167629599986,406.0450119869997,400.0615735839997,1,0.32560330000023896,406.0450119869997,400.0615735839997,,,subj008,002,2022_Apr_09_1712,item,3.2.3,59.891462176874875,
grandfather,0,35,35,34,,,,,,,,,,,,,412.0951579919997,411.1269096629999,411.1269096629999,412.128838092,417.09506065799997,411.1269096629999,1,0.40350251000018034,417.09506065799997,411.1269096629999,,,subj008,002,2022_Apr_09_1712,item,3.2.3,59.891462176874875,
umbrella,0,36,36,5,,,,,,,,,,,,,423.078283113,422.09444360199996,422.09444360199996,423.0950961849999,428.0783757019999,422.09444360199996,2,0.508207651000248,428.0783757019999,422.09444360199996,,,subj008,002,2022_Apr_09_1712,item,3.2.3,59.891462176874875,
bulldozer,0,37,37,17,,,,,,,,,,,,,434.0778382459998,433.07774796199965,433.07774796199965,434.0778382459998,439.06156832099987,444.06280135299994,2,0.513008377999995,439.06156832099987,444.06280135299994,,,subj008,002,2022_Apr_09_1712,item,3.2.3,59.891462176874875,
keyboard,0,38,38,15,,,,,,,,,,,,,445.06226052199963,444.07903379499976,444.07903379499976,445.0789908089996,450.06217628299964,None,2,0.4944474580001952,450.06217628299964,None,,,subj008,002,2022_Apr_09_1712,item,3.2.3,59.891462176874875,
axe,0,39,39,0,,,,,,,,,,,,,456.0452823169999,455.0622852229999,455.0622852229999,456.0624039009999,461.04557705299976,455.0622852229999,2,0.5098816799995802,461.04557705299976,455.0622852229999,,,subj008,002,2022_Apr_09_1712,item,3.2.3,59.891462176874875,
,,,,,,,,,,,,,,,,,,,,,,,,,,,466.044792102,None,,,,,,,
